// General information: 
//  MT Manager version: 2022.0.0 
//  XDA version: 2022.0.0 build 7085 rev 119802 built on 2022-11-08
// Device information: 
//  DeviceId: 00B4737C
//  ProductCode: MTW2-3A7G6
//  Firmware Version: 4.14.0
//  Hardware Version: 2.0.0
// Device settings: 
//  Filter Profile: human(46.1)
//  Option Flags: Orientation Smoother Disabled, Position/Velocity Smoother Disabled, Continuous Zero Rotation Update Disabled, AHS Disabled, ICC Disabled
// Coordinate system: ENU
PacketCounter,Acc_X,Acc_Y,Acc_Z,FreeAcc_E,FreeAcc_N,FreeAcc_U,Gyr_X,Gyr_Y,Gyr_Z,VelInc_X,VelInc_Y,VelInc_Z,OriInc_q0,OriInc_q1,OriInc_q2,OriInc_q3,Quat_q0,Quat_q1,Quat_q2,Quat_q3,Roll,Pitch,Yaw
46013,0.764876,2.240290,9.060002,0.545138,0.037145,-0.464489,-0.091277,-0.483530,0.169765,0.007411,0.022451,0.090608,0.999997,-0.000456,-0.002418,0.000849,0.372431,-0.022241,-0.118508,-0.920194,11.726345,-7.423593,-136.694013
46014,0.553465,2.040173,8.967081,0.602806,0.323976,-0.625268,-0.052513,-0.451379,0.148094,0.005317,0.020429,0.089678,0.999997,-0.000263,-0.002257,0.000740,0.372876,-0.024539,-0.119059,-0.919884,11.687021,-7.697013,-136.658442
46015,0.390194,1.943632,9.072309,0.683138,0.553973,-0.568066,-0.006107,-0.441884,0.109544,0.003691,0.019441,0.090731,0.999997,-0.000031,-0.002209,0.000548,0.373155,-0.026688,-0.119807,-0.919614,11.676539,-7.960948,-136.643310
46016,0.847594,1.779730,8.638123,0.287002,0.281025,-0.961611,0.041638,-0.438301,0.061189,0.008281,0.017782,0.086403,0.999998,0.000208,-0.002192,0.000306,0.373216,-0.028698,-0.120777,-0.919401,11.697529,-8.216932,-136.655316
46017,1.164540,1.848301,8.282322,0.138819,-0.039240,-1.248323,0.158102,-0.325999,0.024733,0.011508,0.018419,0.082857,0.999998,0.000791,-0.001630,0.000124,0.373195,-0.029955,-0.122075,-0.919199,11.786027,-8.405910,-136.674880
46018,1.073345,2.310203,8.570455,0.519751,-0.197680,-0.888981,0.232192,-0.202000,0.003310,0.010646,0.023003,0.085742,0.999999,0.001161,-0.001010,0.000017,0.373159,-0.030489,-0.123486,-0.919007,11.917077,-8.522543,-136.692341
46019,0.230598,2.533128,9.144180,1.254900,0.391121,-0.412788,0.299396,-0.128921,0.000612,0.002247,0.025194,0.091481,0.999999,0.001497,-0.000645,0.000003,0.373166,-0.030562,-0.125069,-0.918788,12.085286,-8.598088,-136.702719
46020,-0.702083,2.826584,9.879763,2.095762,1.039666,0.218214,0.292388,-0.226657,0.015048,-0.007135,0.028121,0.098831,0.999998,0.001462,-0.001133,0.000075,0.373176,-0.031103,-0.126801,-0.918528,12.250438,-8.729851,-136.717203
46021,0.246031,2.532614,9.350669,1.233731,0.504488,-0.214099,0.253297,-0.395460,0.023038,0.002272,0.025208,0.093543,0.999997,0.001266,-0.001977,0.000115,0.373108,-0.032498,-0.128665,-0.918248,12.395546,-8.957081,-136.748342
46022,1.393559,2.545198,8.836939,0.444001,-0.372010,-0.529593,0.287662,-0.359836,-0.001880,0.013777,0.025325,0.088431,0.999997,0.001438,-0.001799,-0.000009,0.372951,-0.033649,-0.130625,-0.917994,12.562343,-9.161172,-136.789852
46023,1.118259,2.581764,9.077579,0.660689,-0.107250,-0.332692,0.308419,-0.271803,-0.039219,0.011064,0.025675,0.090831,0.999998,0.001542,-0.001359,-0.000196,0.372683,-0.034332,-0.132521,-0.917806,12.742662,-9.311204,-136.841913
46024,0.858000,2.590129,9.401496,0.841449,0.187629,-0.061292,0.275655,-0.284263,-0.057217,0.008454,0.025769,0.094063,0.999998,0.001378,-0.001421,-0.000286,0.372316,-0.035121,-0.134293,-0.917667,12.906548,-9.465787,-136.906301
46025,0.953094,2.534160,9.316771,0.737615,0.178332,-0.140224,0.308542,-0.311113,-0.050064,0.009392,0.025195,0.093221,0.999998,0.001543,-0.001556,-0.000250,0.371968,-0.035977,-0.136263,-0.917484,13.089306,-9.635990,-136.970626
46026,1.039319,2.769925,9.579487,0.831941,0.074496,0.178378,0.294208,-0.357889,-0.038121,0.010227,0.027556,0.095854,0.999997,0.001471,-0.001789,-0.000191,0.371639,-0.037082,-0.138253,-0.917276,13.264202,-9.833748,-137.034990
46027,1.738346,2.561416,9.208381,0.203672,-0.311768,-0.105055,0.258647,-0.395751,-0.026113,0.017204,0.025493,0.092151,0.999997,0.001293,-0.001979,-0.000131,0.371330,-0.038434,-0.140146,-0.917058,13.418672,-10.053846,-137.098255
46028,1.607149,2.697462,9.263882,0.397403,-0.256719,-0.042593,0.303891,-0.352077,-0.015454,0.015910,0.026833,0.092708,0.999997,0.001519,-0.001760,-0.000077,0.371107,-0.039510,-0.142164,-0.916792,13.597396,-10.251029,-137.150243
46029,1.579615,2.717643,9.344435,0.436335,-0.185802,0.034859,0.224008,-0.379405,-0.009292,0.015620,0.027071,0.093504,0.999998,0.001120,-0.001897,-0.000046,0.370875,-0.040862,-0.143864,-0.916562,13.730642,-10.463948,-137.203093
46030,1.836742,2.433069,9.049073,0.074574,-0.208970,-0.266495,0.233728,-0.376805,0.010912,0.018196,0.024226,0.090553,0.999998,0.001169,-0.001884,0.000055,0.370738,-0.042200,-0.145599,-0.916282,13.867632,-10.678232,-137.244683
46031,1.897344,2.712086,9.102918,0.232051,-0.383289,-0.137071,0.248383,-0.348290,0.031450,0.018811,0.027011,0.091096,0.999998,0.001242,-0.001741,0.000157,0.370717,-0.043394,-0.147343,-0.915956,14.010339,-10.879215,-137.271223
46032,1.709267,2.603328,9.159997,0.300942,-0.128441,-0.143289,0.204595,-0.321319,0.081360,0.016935,0.025946,0.091654,0.999998,0.001023,-0.001607,0.000407,0.370934,-0.044583,-0.148826,-0.915572,14.122038,-11.072277,-137.266132
46033,1.670301,2.505538,9.105799,0.274604,-0.016009,-0.225852,0.221971,-0.323368,0.141028,0.016538,0.024966,0.091113,0.999998,0.001110,-0.001617,0.000705,0.371424,-0.045792,-0.150377,-0.915060,14.237293,-11.274684,-137.227970
46034,1.885806,2.666038,8.957330,0.246764,-0.278732,-0.285931,0.214839,-0.285094,0.183683,0.018706,0.026581,0.089629,0.999998,0.001074,-0.001425,0.000918,0.372135,-0.046873,-0.151815,-0.914478,14.342524,-11.462122,-137.160466
46035,2.109724,2.509563,8.907238,-0.009391,-0.307434,-0.326221,0.159416,-0.231429,0.213390,0.020967,0.025047,0.089117,0.999998,0.000797,-0.001157,0.001067,0.373008,-0.047832,-0.152892,-0.913893,14.410987,-11.623915,-137.068636
46036,2.045792,2.284770,9.070387,-0.114627,-0.036760,-0.238617,0.185837,-0.158328,0.248201,0.020358,0.022789,0.090741,0.999998,0.000929,-0.000792,0.001241,0.374102,-0.048436,-0.153945,-0.913238,14.488172,-11.750427,-136.946527
46037,1.588553,2.491201,9.499683,0.351947,0.289552,0.125411,0.173287,-0.137743,0.278781,0.015785,0.024852,0.095029,0.999998,0.000866,-0.000689,0.001394,0.375346,-0.048991,-0.154894,-0.912537,14.553841,-11.869898,-136.804223
46038,1.884443,2.084910,9.241407,-0.127936,0.302660,-0.159006,0.132765,-0.154781,0.296661,0.018742,0.020816,0.092442,0.999998,0.000664,-0.000774,0.001483,0.376648,-0.049715,-0.155686,-0.911826,14.594347,-12.001689,-136.654296
46039,1.713561,2.160323,9.401914,0.050252,0.438402,-0.024709,0.166901,-0.111488,0.289413,0.017052,0.021549,0.094047,0.999998,0.000835,-0.000557,0.001447,0.377957,-0.050170,-0.156552,-0.911111,14.653696,-12.108363,-136.502171
46040,1.618930,1.804858,9.335455,-0.124056,0.735109,-0.196380,0.102468,-0.133855,0.255336,0.016104,0.018021,0.093375,0.999999,0.000512,-0.000669,0.001277,0.379077,-0.050824,-0.157176,-0.910502,14.680557,-12.222798,-136.372662
46041,2.102371,1.538927,8.996349,-0.638073,0.490827,-0.481316,0.133483,-0.107464,0.205144,0.020960,0.015351,0.089985,0.999999,0.000667,-0.000537,0.001026,0.379996,-0.051257,-0.157902,-0.909968,14.730188,-12.315157,-136.267752
46042,2.200952,1.605743,9.047476,-0.660021,0.409892,-0.395906,0.137628,-0.048954,0.141587,0.021976,0.016011,0.090491,0.999999,0.000688,-0.000245,0.000708,0.380673,-0.051368,-0.158553,-0.909566,14.787906,-12.366151,-136.190172
46043,1.966756,1.546477,9.179166,-0.543057,0.660481,-0.337158,0.123701,-0.014523,0.088329,0.019654,0.015417,0.091803,1.000000,0.000619,-0.000073,0.000442,0.381131,-0.051305,-0.159087,-0.909285,14.842894,-12.390132,-136.137674
46044,1.825006,1.656144,9.370690,-0.376278,0.755946,-0.160214,0.138677,-0.003307,0.046404,0.018245,0.016501,0.093719,1.000000,0.000693,-0.000017,0.000232,0.381411,-0.051130,-0.159680,-0.909073,14.911268,-12.402003,-136.107276
46045,1.696172,1.802340,9.482098,-0.190838,0.793507,-0.046955,0.121245,-0.037067,0.007185,0.016943,0.017967,0.094835,1.000000,0.000606,-0.000185,0.000036,0.381481,-0.051110,-0.160266,-0.908942,14.975355,-12.426573,-136.104203
46046,2.225995,1.874807,9.363479,-0.513139,0.358525,-0.027350,0.107793,-0.049907,-0.040502,0.022240,0.018693,0.093650,1.000000,0.000539,-0.000250,-0.000203,0.381321,-0.051136,-0.160829,-0.908908,15.038151,-12.451408,-136.130159
46047,2.333125,2.085765,9.412519,-0.445633,0.172984,0.094930,0.099951,-0.023393,-0.074568,0.023328,0.020802,0.094138,1.000000,0.000500,-0.000117,-0.000373,0.381025,-0.051029,-0.161313,-0.908952,15.099515,-12.456228,-136.171352
46048,2.194266,2.133284,9.487745,-0.321931,0.267566,0.147622,0.060901,-0.023100,-0.099092,0.021942,0.021293,0.094886,1.000000,0.000305,-0.000115,-0.000495,0.380607,-0.050976,-0.161627,-0.909075,15.141736,-12.457428,-136.226446
46049,2.033075,2.154499,9.406690,-0.196804,0.341537,0.041535,0.088437,-0.012704,-0.114013,0.020337,0.021492,0.094078,1.000000,0.000442,-0.000064,-0.000570,0.380137,-0.050810,-0.162047,-0.909206,15.200922,-12.450367,-136.288328
46050,1.639640,2.269013,9.539652,0.151333,0.582641,0.110992,0.079845,-0.029071,-0.111373,0.016395,0.022643,0.095408,1.000000,0.000399,-0.000145,-0.000557,0.379664,-0.050738,-0.162462,-0.909333,15.255690,-12.452919,-136.351296
46051,1.842858,2.179397,9.248112,-0.051562,0.415273,-0.143232,0.088564,-0.052906,-0.108493,0.018416,0.021743,0.092496,1.000000,0.000443,-0.000265,-0.000542,0.379186,-0.050759,-0.162957,-0.909443,15.315585,-12.468760,-136.416251
46052,1.807929,2.455904,9.235588,0.162457,0.261767,-0.091513,0.122795,-0.031394,-0.104445,0.018078,0.024493,0.092374,1.000000,0.000614,-0.000157,-0.000522,0.378753,-0.050622,-0.163569,-0.909521,15.394216,-12.473511,-136.475671
46053,1.761041,2.866946,9.422409,0.473925,0.092426,0.180774,0.051371,-0.038649,-0.106774,0.017607,0.028636,0.094235,1.000000,0.000257,-0.000193,-0.000534,0.378285,-0.050650,-0.163868,-0.909661,15.432118,-12.481571,-136.537468
46054,2.214016,2.542774,9.346614,-0.073635,-0.020987,0.123151,-0.042294,-0.041662,-0.125648,0.022137,0.025434,0.093465,1.000000,-0.000211,-0.000208,-0.000628,0.377705,-0.050854,-0.163754,-0.909911,15.419115,-12.488690,-136.610493
46055,2.242772,2.167637,9.425820,-0.360394,0.234177,0.106488,-0.003654,-0.013562,-0.133464,0.022436,0.021663,0.094259,1.000000,-0.000018,-0.000068,-0.000667,0.377122,-0.050850,-0.163761,-0.910151,15.427929,-12.478802,-136.683483
46056,1.801242,2.333178,9.861971,0.053094,0.570137,0.464413,0.055621,-0.032739,-0.122289,0.018011,0.023293,0.098629,1.000000,0.000278,-0.000164,-0.000611,0.376589,-0.050832,-0.164075,-0.910317,15.470310,-12.481477,-136.753216
46057,2.172874,2.488501,9.558077,-0.095645,0.126633,0.298972,0.107240,-0.114547,-0.099004,0.021686,0.024823,0.095607,1.000000,0.000536,-0.000573,-0.000495,0.376108,-0.051107,-0.164768,-0.910375,15.541858,-12.532503,-136.822542
46058,2.485681,2.787791,9.327519,-0.102903,-0.344888,0.228401,0.083763,-0.096888,-0.094176,0.024825,0.027827,0.093299,1.000000,0.000419,-0.000484,-0.000471,0.375656,-0.051350,-0.165323,-0.910447,15.599198,-12.574763,-136.886511
46059,2.504100,2.648062,9.156746,-0.210234,-0.311936,0.035523,0.064752,-0.070151,-0.076855,0.025019,0.026441,0.091585,1.000000,0.000324,-0.000351,-0.000384,0.375302,-0.051521,-0.165734,-0.910509,15.642272,-12.604594,-136.936422
46060,2.189270,2.794598,9.391332,0.107486,-0.111081,0.226033,0.071525,-0.046358,-0.068343,0.021880,0.027905,0.093928,1.000000,0.000358,-0.000232,-0.000342,0.375006,-0.051579,-0.166132,-0.910555,15.687746,-12.622871,-136.977863
46061,2.221618,2.700641,9.386979,0.018636,-0.064876,0.204291,0.017539,-0.076427,-0.063765,0.022189,0.026991,0.093881,1.000000,0.000088,-0.000382,-0.000319,0.374694,-0.051878,-0.166336,-0.910629,15.702438,-12.658152,-137.021423
46062,2.292384,2.552808,9.268445,-0.130725,-0.047389,0.069447,0.053592,-0.063681,-0.071396,0.022903,0.025495,0.092699,1.000000,0.000268,-0.000318,-0.000357,0.374365,-0.052046,-0.166685,-0.910691,15.738668,-12.685470,-137.067373
46063,2.212894,2.713801,9.364613,0.034758,-0.060367,0.184949,0.062309,-0.069578,-0.079430,0.022107,0.027100,0.093662,1.000000,0.000312,-0.000348,-0.000397,0.373998,-0.052217,-0.167084,-0.910759,15.780776,-12.714499,-137.118746
46064,2.259290,2.830682,9.324417,0.082651,-0.173341,0.188563,0.081633,-0.064861,-0.065389,0.022572,0.028261,0.093263,1.000000,0.000408,-0.000324,-0.000327,0.373704,-0.052343,-0.167562,-0.910785,15.832422,-12.743338,-137.161542
46065,2.288649,3.001757,9.341532,0.179040,-0.290610,0.256879,0.074720,-0.078074,-0.054478,0.022858,0.029976,0.093435,1.000000,0.000374,-0.000390,-0.000272,0.373446,-0.052550,-0.168027,-0.910793,15.878912,-12.780879,-137.200244
46066,2.481286,2.993495,9.244924,0.037251,-0.436541,0.207016,0.075140,-0.055142,-0.030203,0.024792,0.029896,0.092467,1.000000,0.000376,-0.000276,-0.000151,0.373318,-0.052674,-0.168448,-0.910760,15.922149,-12.809817,-137.221654
46067,2.462697,3.130955,9.309263,0.143051,-0.485621,0.300365,0.065899,-0.031571,-0.011377,0.024614,0.031277,0.093107,1.000000,0.000329,-0.000158,-0.000057,0.373293,-0.052722,-0.168775,-0.910707,15.956610,-12.828485,-137.228576
46068,2.244548,3.024542,9.354955,0.222301,-0.248169,0.266500,0.062556,-0.028919,0.004800,0.022431,0.030217,0.093562,1.000000,0.000313,-0.000145,0.000024,0.373343,-0.052779,-0.169080,-0.910627,15.987326,-12.848471,-137.226010
46069,2.259192,2.931247,9.334306,0.147382,-0.196784,0.225489,0.050604,-0.043225,0.011744,0.022570,0.029290,0.093355,1.000000,0.000253,-0.000216,0.000059,0.373409,-0.052928,-0.169353,-0.910540,16.010590,-12.877216,-137.221792
46070,2.487450,2.985561,9.167920,0.026859,-0.435703,0.135236,0.064013,-0.022936,0.008500,0.024863,0.029827,0.091692,1.000000,0.000320,-0.000115,0.000043,0.373481,-0.052958,-0.169653,-0.910453,16.041460,-12.894495,-137.216184
46071,2.341311,3.047339,9.326152,0.168502,-0.320476,0.267691,0.041720,-0.001141,0.009790,0.023411,0.030455,0.093268,1.000000,0.000209,-0.000006,0.000049,0.373572,-0.052931,-0.169808,-0.910389,16.058392,-12.899780,-137.206266
46072,2.505301,3.110057,9.297946,0.095049,-0.477920,0.294901,0.037792,0.003586,0.031284,0.025050,0.031087,0.092985,1.000000,0.000189,0.000018,0.000156,0.373763,-0.052909,-0.169933,-0.910288,16.070402,-12.906072,-137.183486
46073,2.699772,3.126591,9.270138,-0.031914,-0.626118,0.316812,0.029265,0.022362,0.049209,0.027000,0.031259,0.092703,1.000000,0.000146,0.000112,0.000246,0.374050,-0.052831,-0.169977,-0.910167,16.074414,-12.904694,-137.147492
46074,3.039815,2.912073,8.965770,-0.415905,-0.816285,0.049684,0.038367,0.055683,0.096274,0.030409,0.029118,0.089655,1.000000,0.000192,0.000278,0.000481,0.374582,-0.052626,-0.169990,-0.909957,16.076668,-12.892618,-137.079528
46075,4.863748,2.473055,7.430897,-1.979682,-2.276734,-1.101338,0.143775,0.189720,0.209531,0.048682,0.024728,0.074281,0.999999,0.000719,0.000949,0.001048,0.375770,-0.051709,-0.170200,-0.909481,16.120147,-12.824669,-136.925748
46076,6.393343,3.436650,6.197843,-2.365024,-4.376481,-1.667037,0.561780,0.694653,0.462679,0.064069,0.034341,0.061853,0.999987,0.002809,0.003473,0.002313,0.378641,-0.047926,-0.171296,-0.908291,16.354225,-12.519981,-136.546294
46077,5.959826,5.826939,6.378958,-0.400103,-5.616340,-0.954904,0.785625,1.307249,0.919241,0.059747,0.058294,0.063628,0.999960,0.003928,0.006536,0.004596,0.384145,-0.041328,-0.172131,-0.906143,16.643161,-11.955029,-135.807361
46078,5.447386,7.779670,6.426589,1.353792,-6.549780,-0.497882,0.662685,1.843521,1.538138,0.054465,0.078003,0.064022,0.999922,0.003313,0.009217,0.007690,0.392844,-0.033062,-0.171230,-0.902918,16.782262,-11.200152,-134.631255
46079,4.205466,8.232198,6.955123,2.546658,-5.841739,-0.157816,0.319643,2.355226,2.147770,0.041984,0.082662,0.069188,0.999872,0.001598,0.011776,0.010738,0.404595,-0.023679,-0.167645,-0.898686,16.663468,-10.265887,-133.032143
46080,2.636061,7.256313,7.637528,2.881432,-3.960628,-0.120189,-0.074702,2.693238,2.671963,0.026413,0.072944,0.075993,0.999820,-0.000373,0.013465,0.013359,0.418813,-0.014003,-0.161485,-0.893489,16.288033,-9.223557,-131.094113
46081,1.914481,6.003656,7.802211,2.441851,-2.720897,-0.473719,-0.400675,2.932505,3.038527,0.019368,0.060485,0.077618,0.999775,-0.002003,0.014661,0.015191,0.434668,-0.004236,-0.153287,-0.887440,15.728723,-8.092747,-128.928421
46082,1.752411,4.717691,7.768202,1.598896,-1.996233,-0.917243,-0.595885,3.194519,3.406731,0.017951,0.047711,0.077256,0.999723,-0.002979,0.015971,0.017032,0.452135,0.005994,-0.143558,-0.880301,15.071521,-6.849562,-126.535819
46083,1.238680,4.002210,7.651081,1.378409,-1.375369,-1.309908,-0.540104,3.483730,3.715443,0.012967,0.040465,0.076179,0.999672,-0.002700,0.017417,0.018575,0.470891,0.017393,-0.133357,-0.871880,14.481055,-5.466554,-123.949198
46084,0.030694,4.000415,8.730505,1.864230,-0.308791,-0.397137,-0.564889,3.708067,3.823266,0.001156,0.040267,0.087175,0.999641,-0.002824,0.018538,0.019114,0.489946,0.029631,-0.122424,-0.862605,13.934552,-3.947518,-121.290778
46085,-1.240566,2.460892,8.934841,1.121739,1.374926,-0.632665,-0.744035,3.721327,3.812685,-0.011212,0.024720,0.089473,0.999638,-0.003720,0.018604,0.019061,0.508636,0.041469,-0.110610,-0.852839,13.359064,-2.394984,-118.656566
46086,-1.972843,1.158286,9.560291,0.109629,2.465920,-0.297872,-0.759270,3.692036,3.607352,-0.018169,0.011609,0.095904,0.999660,-0.003796,0.018458,0.018035,0.526080,0.053231,-0.098671,-0.843012,12.849587,-0.806125,-116.158454
46087,-2.806320,-0.122022,9.933586,-0.891060,3.519132,-0.149512,-0.634904,3.506147,3.295433,-0.026295,-0.001347,0.099811,0.999706,-0.003174,0.017529,0.016476,0.541751,0.064655,-0.087613,-0.833457,12.480885,0.735981,-113.871389
46088,-3.260630,-0.132114,10.392196,-1.015370,3.679422,0.388596,-0.287084,3.332979,2.989389,-0.030846,-0.001641,0.104448,0.999748,-0.001435,0.016663,0.014946,0.555662,0.076400,-0.078312,-0.824178,12.365874,2.229587,-111.782617
46089,-3.852493,-0.166712,11.257316,-1.240896,3.995259,1.326566,-0.028680,3.000576,2.774912,-0.036803,-0.002170,0.113134,0.999791,-0.000143,0.015002,0.013874,0.568205,0.087540,-0.070891,-0.815141,12.443165,3.563414,-109.853539
46090,-3.345960,-0.088267,11.265126,-1.575944,3.237304,1.373629,0.326715,2.553701,2.604191,-0.032001,-0.001490,0.113064,0.999832,0.001633,0.012768,0.013020,0.579524,0.097898,-0.066077,-0.806351,12.753834,4.662951,-108.069060
46091,-2.492068,-0.008360,10.817409,-1.877103,2.191932,0.906081,0.641467,2.280052,2.394946,-0.023679,-0.000720,0.108447,0.999858,0.003207,0.011400,0.011974,0.589575,0.108103,-0.063208,-0.797947,13.264550,5.623359,-106.426849
46092,-2.515492,0.450238,10.874592,-1.665461,1.893475,1.069506,0.850305,2.104077,2.074189,-0.024051,0.003786,0.109020,0.999882,0.004251,0.010520,0.010371,0.598025,0.118296,-0.061495,-0.790310,13.900616,6.513025,-104.975883
46093,-2.311766,0.428445,10.815678,-1.916809,1.542102,0.978495,0.831656,1.903712,1.695618,-0.022119,0.003644,0.108387,0.999910,0.004158,0.009518,0.008478,0.604804,0.127731,-0.060074,-0.783765,14.520170,7.328372,-103.752918
46094,-1.588464,-1.138618,9.937205,-3.477657,1.149876,-0.370908,0.947140,1.776941,1.358740,-0.014921,-0.011961,0.099452,0.999926,0.004736,0.008884,0.006794,0.610052,0.137101,-0.059261,-0.778157,15.196298,8.109618,-102.725597
46095,-1.488747,-1.455531,9.154211,-3.742414,1.043240,-1.266599,1.551170,1.835586,1.047529,-0.013968,-0.015340,0.091556,0.999914,0.007756,0.009178,0.005237,0.613596,0.148609,-0.060397,-0.773154,16.210484,8.956034,-101.849020
46096,-2.057474,0.498701,9.259576,-2.048089,0.983514,-0.590224,1.952481,1.895360,0.716741,-0.019711,0.004010,0.092828,0.999901,0.009762,0.009476,0.003584,0.615468,0.161654,-0.062642,-0.768858,17.442682,9.873256,-101.127514
46097,-1.799870,1.267022,8.686801,-1.416008,0.489394,-0.977758,1.859875,1.916867,0.379046,-0.017187,0.011828,0.087148,0.999909,0.009299,0.009584,0.001895,0.616007,0.174568,-0.064180,-0.765468,18.604012,10.846716,-100.567758
46098,-1.566383,1.640059,7.720725,-0.977271,0.165016,-1.827311,1.958094,2.087343,0.051932,-0.014860,0.015639,0.077521,0.999898,0.009790,0.010436,0.000260,0.615144,0.188513,-0.065272,-0.762758,19.807285,11.962770,-100.133451
46099,-2.434738,3.566242,7.624666,0.765532,0.419342,-1.094106,2.022890,2.301511,-0.215939,-0.023427,0.034913,0.076875,0.999882,0.010114,0.011507,-0.001080,0.613135,0.203515,-0.065683,-0.760482,21.039104,13.237819,-99.776523
46100,-2.961093,5.685403,7.821666,2.483768,0.208517,-0.012151,1.679481,2.420124,-0.387635,-0.028548,0.056249,0.079040,0.999890,0.008397,0.012100,-0.001938,0.610721,0.217930,-0.064237,-0.758551,22.072961,14.605341,-99.460271
46101,-3.110342,6.651353,7.781200,3.206318,-0.090238,0.393517,1.101989,2.532467,-0.415862,-0.029974,0.066145,0.078561,0.999902,0.005510,0.012662,-0.002079,0.608740,0.230968,-0.060213,-0.756613,22.791865,16.033500,-99.110408
46102,-3.967807,6.749110,8.055839,3.161505,0.417403,0.958333,0.644026,2.576318,-0.333996,-0.038522,0.067295,0.081277,0.999910,0.003220,0.012881,-0.001670,0.607496,0.242715,-0.054408,-0.754372,23.278354,17.462991,-98.686988
46103,-4.684151,6.106502,8.431360,2.417629,0.943249,1.303895,0.224463,2.469748,-0.189494,-0.045737,0.061014,0.084951,0.999923,0.001122,0.012348,-0.000947,0.607177,0.252704,-0.047510,-0.751811,23.555165,18.800705,-98.195931
46104,-4.692692,4.727565,8.641255,1.016623,1.035865,1.000808,0.037391,2.275509,-0.052758,-0.045927,0.047272,0.086948,0.999935,0.000187,0.011377,-0.000264,0.607476,0.261328,-0.040665,-0.749017,23.747885,20.003238,-97.666595
46105,-4.468271,3.232426,8.635144,-0.406351,1.013690,0.374737,0.022537,2.079128,-0.015597,-0.043779,0.032318,0.086813,0.999946,0.000113,0.010395,-0.000078,0.607822,0.269134,-0.034404,-0.746282,23.935236,21.092597,-97.156896
46106,-4.498221,2.198890,8.608177,-1.382740,1.132801,-0.016187,0.327885,1.944537,-0.068893,-0.044135,0.021863,0.086550,0.999951,0.001639,0.009723,-0.000344,0.607472,0.277347,-0.029617,-0.743760,24.286095,22.121774,-96.701930
46107,-5.050214,2.559026,8.984180,-1.268387,1.265399,0.654184,0.649881,1.765241,-0.150104,-0.049687,0.025335,0.090365,0.999955,0.003249,0.008826,-0.000751,0.606291,0.285857,-0.026455,-0.741618,24.797786,23.073724,-96.327448
46108,-5.547534,3.366580,9.260653,-0.739501,1.261841,1.400099,0.698362,1.514829,-0.227992,-0.054733,0.033404,0.093140,0.999965,0.003492,0.007574,-0.001140,0.604671,0.293574,-0.024119,-0.740004,25.303339,23.911371,-96.051588
46109,-5.644133,3.486808,8.976214,-0.591352,1.267102,1.261119,0.608364,1.245140,-0.267772,-0.055834,0.034669,0.090217,0.999975,0.003042,0.006226,-0.001339,0.602966,0.300008,-0.022204,-0.738873,25.725028,24.617538,-95.862256
46110,-5.636895,3.577704,8.686282,-0.458463,1.216600,1.065473,0.573533,1.000966,-0.237273,-0.055891,0.035594,0.087246,0.999983,0.002868,0.005005,-0.001186,0.601375,0.305418,-0.020943,-0.737990,26.110448,25.188774,-95.716530
46111,-5.336070,3.625166,8.209308,-0.291008,1.007120,0.575209,0.596958,0.767705,-0.150833,-0.053018,0.036046,0.082405,0.999988,0.002985,0.003839,-0.000754,0.600024,0.310022,-0.020598,-0.737179,26.505277,25.617691,-95.582384
46112,-4.892300,3.846108,7.779228,-0.000023,0.633744,0.129209,0.627632,0.598326,-0.089830,-0.048673,0.038238,0.078058,0.999991,0.003138,0.002992,-0.000449,0.598822,0.314079,-0.020972,-0.736429,26.914344,25.942995,-95.458189
46113,-4.440620,3.730387,7.049568,0.151975,0.470790,-0.697528,0.619580,0.498451,-0.045991,-0.044222,0.037095,0.070721,0.999992,0.003098,0.002492,-0.000230,0.597771,0.317736,-0.021680,-0.735693,27.318568,26.205546,-95.335330
46114,-3.982217,3.909472,6.529389,0.461814,0.155350,-1.237313,0.732562,0.516799,-0.060274,-0.039641,0.038867,0.065539,0.999990,0.003663,0.002584,-0.000301,0.596481,0.321792,-0.022729,-0.734944,27.788215,26.479921,-95.212564
46115,-4.223408,4.793823,6.608496,1.137065,0.048656,-0.691596,0.699972,0.557255,-0.087378,-0.042029,0.047725,0.066370,0.999990,0.003500,0.002786,-0.000437,0.595136,0.325899,-0.023490,-0.734201,28.239360,26.781625,-95.090245
46116,-4.319665,4.766045,6.419481,1.156490,0.165226,-0.800515,0.512224,0.558772,-0.099063,-0.042993,0.047517,0.064437,0.999993,0.002561,0.002794,-0.000495,0.594044,0.329446,-0.023542,-0.733500,28.582146,27.086051,-94.971343
46117,-4.368590,4.504916,6.296929,0.949426,0.284998,-0.978257,0.454760,0.580998,-0.070525,-0.043487,0.044921,0.063198,0.999993,0.002274,0.002905,-0.000353,0.593145,0.332899,-0.023360,-0.732674,28.904087,27.393641,-94.827141
46118,-4.300097,4.265496,6.220695,0.732978,0.278660,-1.165891,0.408335,0.610595,-0.063886,-0.042797,0.042541,0.062425,0.999993,0.002042,0.003053,-0.000319,0.592345,0.336315,-0.022935,-0.731775,29.207299,27.713021,-94.667581
46119,-3.921215,3.754052,5.901744,0.396980,0.165236,-1.805552,0.307404,0.684038,-0.152773,-0.038981,0.037479,0.059209,0.999993,0.001537,0.003420,-0.000764,0.591387,0.339709,-0.021770,-0.731016,29.442002,28.093878,-94.532731
46120,-3.778774,3.940207,5.830791,0.553463,-0.050580,-1.844430,0.221547,0.852312,-0.374039,-0.037465,0.039408,0.058512,0.999989,0.001108,0.004262,-0.001870,0.589776,0.343480,-0.019420,-0.730622,29.595493,28.620178,-94.467232
46121,-4.463973,4.023290,6.194547,0.463101,0.303171,-1.199955,0.025248,0.975614,-0.552043,-0.044226,0.040348,0.062167,0.999984,0.000126,0.004878,-0.002760,0.587846,0.347133,-0.015681,-0.730541,29.608038,29.258719,-94.461927
46122,-5.054782,3.568003,6.305489,0.054360,0.815803,-1.016593,-0.052707,0.975355,-0.646459,-0.050124,0.035859,0.063291,0.999983,-0.000264,0.004877,-0.003232,0.585689,0.350549,-0.011496,-0.730720,29.549002,29.923315,-94.511096
46123,-5.384782,4.123635,6.779423,0.295393,0.634687,-0.248705,0.023650,0.959610,-0.613336,-0.053395,0.041393,0.068056,0.999984,0.000118,0.004798,-0.003067,0.583497,0.354121,-0.007690,-0.730801,29.539972,30.571255,-94.547052
46124,-5.308171,4.446207,7.087665,0.396894,0.238054,0.085059,-0.066775,0.883252,-0.507466,-0.052655,0.044620,0.071095,0.999987,-0.000334,0.004416,-0.002537,0.581835,0.357133,-0.003968,-0.730691,29.497064,31.150647,-94.547230
46125,-4.872866,4.114122,7.274652,-0.011337,-0.200445,-0.140546,-0.151558,0.871737,-0.459852,-0.048316,0.041308,0.072926,0.999988,-0.000758,0.004359,-0.002299,0.580480,0.359850,-0.000051,-0.730446,29.417877,31.711497,-94.524048
46126,-3.607917,2.914437,6.356169,-0.602468,-0.598244,-1.990291,-0.763002,1.017567,-0.785104,-0.035640,0.029528,0.063632,0.999972,-0.003815,0.005088,-0.003925,0.579017,0.361306,0.007105,-0.730853,28.910257,32.435595,-94.648130
46127,-3.776527,2.189713,6.355531,-1.161945,-0.342192,-2.198183,-0.550164,1.448117,-1.228867,-0.037168,0.022302,0.063765,0.999951,-0.002751,0.007240,-0.006144,0.575486,0.364913,0.015533,-0.731719,28.450528,33.497799,-94.905451
46128,-6.388825,1.677178,6.765453,-1.583872,1.661239,-0.640433,-0.270191,1.384033,-1.435604,-0.063295,0.017319,0.068071,0.999949,-0.001351,0.006920,-0.007178,0.570638,0.369034,0.023125,-0.733247,28.057735,34.581530,-95.322432
46129,-6.867555,3.376463,6.830803,-0.102712,1.253065,0.367684,0.136124,1.350996,-1.384631,-0.067976,0.034190,0.068792,0.999953,0.000681,0.006755,-0.006923,0.565174,0.374167,0.029041,-0.734666,27.896379,35.633783,-95.730568
46130,-7.317066,5.621295,7.749819,1.383556,0.193875,2.155743,0.030718,1.124860,-1.112707,-0.072419,0.056605,0.077916,0.999969,0.000154,0.005624,-0.005563,0.560897,0.378179,0.034191,-0.735667,27.720360,36.497136,-96.051706
46131,-6.326116,5.292974,7.424988,1.215200,-0.484954,1.207847,-0.405897,0.915291,-0.820813,-0.062702,0.053339,0.074430,0.999979,-0.002029,0.004576,-0.004104,0.558524,0.380230,0.039809,-0.736133,27.355211,37.176157,-96.265231
46132,-5.405651,3.706086,7.060127,0.011321,-0.571168,-0.196352,-0.529263,0.940779,-0.693944,-0.053594,0.037434,0.070755,0.999979,-0.002646,0.004704,-0.003470,0.556826,0.382035,0.045705,-0.736142,26.967591,37.833152,-96.396324
46133,-4.589970,2.553681,6.665439,-0.798074,-0.707299,-1.393760,-0.707577,1.171667,-0.949985,-0.045386,0.025989,0.066830,0.999965,-0.003538,0.005858,-0.004750,0.554441,0.384119,0.053390,-0.736341,26.414946,38.674005,-96.626828
46134,-5.813053,1.654743,7.124846,-1.642733,0.196879,-0.617413,-0.490898,1.433039,-1.315416,-0.057507,0.017103,0.071620,0.999950,-0.002454,0.007165,-0.006577,0.550180,0.387632,0.061697,-0.737047,25.875409,39.739147,-97.028172
46135,-7.860263,1.973397,7.697094,-1.412308,1.149265,1.214733,-0.321885,1.331468,-1.460164,-0.077941,0.020429,0.077459,0.999950,-0.001609,0.006657,-0.007301,0.545032,0.391154,0.069379,-0.738326,25.329741,40.785257,-97.579931
46136,-8.255169,2.755348,7.871502,-0.724663,0.846455,1.868718,-0.335537,1.064760,-1.398805,-0.081935,0.028260,0.079105,0.999960,-0.001678,0.005324,-0.006994,0.540183,0.393639,0.076254,-0.739889,24.726067,41.673156,-98.197236
46137,-7.307649,2.491864,7.486624,-0.782639,0.287416,0.909389,-0.518317,0.858337,-1.364651,-0.072581,0.025609,0.075113,0.999964,-0.002592,0.004292,-0.006823,0.535857,0.394852,0.083181,-0.741641,23.967976,42.440334,-98.878505
46138,-6.746637,1.675715,6.888039,-1.168573,0.394073,-0.104592,-0.507562,0.827391,-1.465649,-0.067055,0.017425,0.069115,0.999961,-0.002538,0.004137,-0.007328,0.531110,0.395905,0.090173,-0.743674,23.138379,43.206627,-99.664398
46139,-7.130685,2.169971,6.927035,-0.638036,0.293778,0.338345,-0.253854,0.877816,-1.570514,-0.070828,0.022345,0.069554,0.999959,-0.001269,0.004389,-0.007852,0.525403,0.397743,0.096562,-0.745941,22.386609,44.015470,-100.536383
46140,-7.439678,2.581636,7.166148,-0.282178,0.041887,0.830765,-0.370604,0.847833,-1.603501,-0.073881,0.026543,0.071927,0.999957,-0.001853,0.004239,-0.008017,0.519779,0.399111,0.103359,-0.748236,21.516772,44.805751,-101.469386
46141,-7.658627,2.121646,7.059506,-0.504166,0.292135,0.800984,-0.433516,0.820954,-1.653746,-0.076116,0.022001,0.070861,0.999955,-0.002168,0.004105,-0.008269,0.514059,0.400156,0.110419,-0.750617,20.546908,45.581866,-102.479338
46142,-7.966417,2.106888,7.249319,-0.468187,0.239733,1.149793,-0.320320,0.713307,-1.624247,-0.079230,0.021830,0.072742,0.999959,-0.001602,0.003566,-0.008121,0.508241,0.401068,0.116703,-0.753137,19.605050,46.281597,-103.528371
46143,-7.831447,2.315767,7.176997,-0.185539,-0.051680,1.057652,-0.224172,0.588085,-1.562463,-0.077919,0.023848,0.071973,0.999965,-0.001121,0.002940,-0.007812,0.502495,0.401761,0.122180,-0.755750,18.698788,46.890748,-104.592308
46144,-7.496313,1.749644,7.060754,-0.580844,-0.073941,0.616370,-0.323337,0.481719,-1.606289,-0.074648,0.018211,0.070759,0.999964,-0.001617,0.002409,-0.008031,0.496815,0.401746,0.127838,-0.758573,17.663393,47.436694,-105.745389
46145,-7.384483,0.358710,6.762993,-1.544973,0.566256,0.071011,-0.244561,0.466784,-1.898632,-0.073648,0.004370,0.067797,0.999951,-0.001223,0.002334,-0.009493,0.489832,0.401650,0.133743,-0.762138,16.465164,48.008868,-107.168664
46146,-8.455238,-0.433977,7.120224,-2.053944,1.298624,0.979374,-0.115733,0.382978,-2.202172,-0.084456,-0.003368,0.071366,0.999937,-0.000579,0.001915,-0.011011,0.481439,0.401302,0.139540,-0.766617,15.104127,48.560017,-108.896974
46147,-8.687850,0.645970,7.190296,-0.966595,0.734380,1.417587,0.086657,0.210433,-2.457375,-0.086715,0.007495,0.071997,0.999924,0.000433,0.001052,-0.012287,0.471713,0.400546,0.144647,-0.772093,13.629662,49.023681,-110.915891
46148,-8.451339,0.653030,6.691092,-0.606801,0.755116,0.942770,-0.135301,0.050764,-2.478104,-0.084406,0.007622,0.066927,0.999923,-0.000676,0.000254,-0.012390,0.462398,0.398574,0.150245,-0.777659,11.956514,49.363442,-113.017803
46149,-7.720742,1.077777,6.141928,-0.013818,0.300200,0.107071,0.078904,0.093039,-2.412266,-0.077042,0.011683,0.061460,0.999927,0.000395,0.000465,-0.012061,0.452808,0.397252,0.154964,-0.783034,10.424465,49.681684,-115.084317
46150,-8.061597,1.939701,6.654320,0.693417,-0.406137,0.788375,-0.094234,0.080726,-2.373161,-0.080351,0.020383,0.066566,0.999929,-0.000471,0.000404,-0.011866,0.443664,0.395464,0.160224,-0.788098,8.793192,49.951501,-117.142802
46151,-7.824143,1.304732,6.024742,0.544424,0.061199,0.132873,-0.074233,0.024353,-2.223448,-0.078082,0.013938,0.060252,0.999938,-0.000371,0.000122,-0.011117,0.435053,0.393565,0.164972,-0.792855,7.246812,50.140957,-119.097675
46152,-7.462591,2.623449,5.855913,1.702312,-0.899811,-0.160984,0.222425,0.080531,-1.853872,-0.074355,0.026859,0.058619,0.999956,0.001112,0.000403,-0.009269,0.427236,0.392799,0.167913,-0.796859,6.114642,50.307828,-120.730634
46153,-7.094770,4.110249,6.110295,2.733469,-2.219840,-0.212433,0.028907,0.159604,-1.404343,-0.070608,0.041590,0.061165,0.999975,0.000145,0.000798,-0.007022,0.421490,0.392284,0.170907,-0.799531,5.174530,50.476027,-121.965661
46154,-7.424471,2.450462,6.131311,1.548433,-1.173560,-0.068730,-0.207897,0.206219,-1.125761,-0.074042,0.024986,0.061364,0.999983,-0.001039,0.001031,-0.005629,0.417269,0.391679,0.174385,-0.801289,4.287265,50.644608,-122.954382
46155,-7.941880,0.247847,6.406513,-0.119355,0.160736,0.392092,-0.098901,0.168650,-1.046677,-0.079350,0.002926,0.064131,0.999986,-0.000495,0.000843,-0.005233,0.413169,0.391209,0.177193,-0.803025,3.507985,50.779923,-123.881608
46156,-8.311211,-0.597625,6.729130,-0.757353,0.600545,0.854068,0.123006,0.074347,-1.181387,-0.083121,-0.005527,0.067319,0.999982,0.000615,0.000372,-0.005907,0.408166,0.390686,0.179168,-0.805396,2.753676,50.857193,-124.939755
46157,-8.389457,-1.327531,6.654610,-1.190546,1.074849,0.857619,0.193097,-0.081711,-1.436287,-0.084014,-0.012736,0.066499,0.999974,0.000965,-0.000409,-0.007181,0.402120,0.389433,0.181039,-0.808620,1.852673,50.841747,-126.237795
46158,-8.177795,-1.850553,6.376942,-1.437286,1.410419,0.527027,0.288006,-0.178910,-1.748248,-0.081993,-0.017881,0.063670,0.999960,0.001440,-0.000895,-0.008741,0.394693,0.387669,0.182919,-0.812694,0.788558,50.760270,-127.817946
46159,-8.226407,-1.704184,6.490197,-1.224211,1.229608,0.660519,0.346994,-0.249174,-2.019730,-0.082512,-0.016322,0.064771,0.999947,0.001735,-0.001246,-0.010098,0.386072,0.385452,0.184938,-0.817418,-0.426170,50.619578,-129.638142
46160,-7.837204,-1.818070,6.203416,-1.180211,1.233340,0.201962,0.346779,-0.289110,-2.216483,-0.078657,-0.017417,0.061890,0.999936,0.001734,-0.001446,-0.011082,0.376643,0.382845,0.187232,-0.822505,-1.763583,50.427812,-131.622227
46161,-8.328598,-1.135464,6.545393,-0.458786,0.764362,0.803322,0.472174,-0.355147,-2.363999,-0.083530,-0.010523,0.065280,0.999926,0.002361,-0.001776,-0.011820,0.366375,0.380011,0.189150,-0.828000,-3.112398,50.165473,-133.720036
46162,-7.837666,0.007608,6.431787,0.392748,-0.216228,0.316170,0.464850,-0.458981,-2.357244,-0.078517,0.000852,0.064139,0.999925,0.002324,-0.002295,-0.011786,0.356195,0.376685,0.190859,-0.833550,-4.429318,49.812579,-135.781132
46163,-7.467201,1.276118,6.350532,1.327346,-1.260025,-0.098484,0.446734,-0.476059,-2.177473,-0.074679,0.013433,0.063357,0.999935,0.002234,-0.002380,-0.010887,0.346763,0.373373,0.192258,-0.838680,-5.606767,49.430486,-137.655703
46164,-6.896812,1.836794,6.121063,1.672797,-1.829605,-0.742930,0.327427,-0.419559,-1.868222,-0.068921,0.018912,0.061097,0.999953,0.001637,-0.002098,-0.009341,0.338761,0.370349,0.193647,-0.842961,-6.623210,49.076015,-139.238929
46165,-6.954523,1.378066,6.270642,1.379465,-1.636169,-0.592893,0.228537,-0.250383,-1.611109,-0.069510,0.014269,0.062636,0.999966,0.001143,-0.001252,-0.008055,0.331832,0.368089,0.195255,-0.846330,-7.523593,48.818901,-140.599633
46166,-7.738208,-0.123494,6.700094,0.585805,-0.555290,0.391922,0.258921,-0.221765,-1.453946,-0.077463,-0.000759,0.066914,0.999972,0.001295,-0.001109,-0.007270,0.325466,0.366131,0.196473,-0.849363,-8.292964,48.577190,-141.815156
46167,-7.909586,-1.299251,6.910790,-0.160806,0.190424,0.767754,0.442571,-0.267209,-1.447045,-0.079280,-0.012572,0.068974,0.999970,0.002213,-0.001336,-0.007235,0.318818,0.364266,0.196820,-0.852601,-8.937647,48.300664,-143.008833
46168,-8.287978,-2.144170,7.514972,-0.735690,0.587229,1.539652,0.586142,-0.420726,-1.566807,-0.083203,-0.021010,0.074913,0.999963,0.002931,-0.002104,-0.007834,0.311529,0.361833,0.196509,-0.856394,-9.545056,47.917445,-144.269783
46169,-8.439367,-2.916185,7.872367,-1.219511,1.011728,1.985131,0.774743,-0.612663,-1.745453,-0.084886,-0.028726,0.078352,0.999950,0.003874,-0.003063,-0.008727,0.303294,0.358665,0.195404,-0.860923,-10.116534,47.399912,-145.636523
46170,-8.423436,-2.659152,8.131252,-1.028661,0.699822,2.128512,0.991584,-0.839384,-1.903798,-0.084825,-0.026187,0.080827,0.999934,0.004958,-0.004197,-0.009519,0.294178,0.354654,0.193277,-0.866213,-10.607450,46.729587,-147.076814
46171,-8.125956,-1.614841,7.977843,-0.279632,-0.073411,1.685086,1.069230,-1.055759,-1.978465,-0.081836,-0.015765,0.079262,0.999923,0.005346,-0.005279,-0.009892,0.284765,0.349696,0.190608,-0.871946,-11.042207,45.921630,-148.517611
46172,-7.664743,-1.277315,7.569881,0.032282,-0.243373,1.032595,0.987859,-1.188087,-1.975518,-0.077219,-0.012384,0.075179,0.999921,0.004939,-0.005940,-0.009877,0.275591,0.343995,0.188063,-0.877695,-11.468915,45.032107,-149.903544
46173,-7.781803,-1.557816,7.684332,0.052331,-0.004895,1.233870,0.951244,-1.275076,-1.984737,-0.078457,-0.015165,0.076272,0.999919,0.004756,-0.006375,-0.009923,0.266477,0.337797,0.185552,-0.883433,-11.875470,44.085681,-151.252203
46174,-7.449065,-1.909483,7.386454,-0.029502,0.356276,0.843920,1.022801,-1.394172,-1.950494,-0.075187,-0.018739,0.073246,0.999915,0.005114,-0.006971,-0.009752,0.257461,0.331147,0.182471,-0.889247,-12.170596,43.070723,-152.523797
46175,-6.892667,-1.186130,7.137052,0.327448,-0.230951,0.171817,1.188561,-1.385111,-1.873197,-0.069528,-0.011634,0.070821,0.999915,0.005943,-0.006925,-0.009366,0.248461,0.324762,0.178513,-0.894947,-12.299352,42.066821,-153.712959
46176,-6.781844,-0.709316,7.004112,0.735638,-0.532153,-0.079864,1.248370,-1.370984,-1.721274,-0.068356,-0.006941,0.069530,0.999920,0.006242,-0.006855,-0.008606,0.239992,0.318599,0.174021,-0.900342,-12.290266,41.088472,-154.770187
46177,-6.585044,-0.316367,7.090041,0.900435,-0.896621,-0.215012,1.310278,-1.310150,-1.531535,-0.066337,-0.003119,0.070446,0.999928,0.006551,-0.006551,-0.007657,0.232187,0.312900,0.169002,-0.905329,-12.140068,40.168290,-155.684383
46178,-6.790110,-0.326842,7.035691,1.175320,-0.727955,-0.127614,1.384521,-1.265324,-1.325869,-0.068366,-0.003301,0.069903,0.999934,0.006922,-0.006326,-0.006629,0.225129,0.307622,0.163348,-0.909947,-11.839310,39.300467,-156.447740
46179,-7.258751,0.124436,7.788793,1.478046,-1.209475,0.662100,1.413357,-1.316408,-1.197424,-0.073091,0.001133,0.077416,0.999935,0.007067,-0.006582,-0.005987,0.218623,0.302208,0.157291,-0.914404,-11.449380,38.422419,-157.108698
46180,-7.155262,-0.085930,8.337163,1.154169,-1.202462,1.047023,1.104144,-1.435857,-1.170281,-0.072154,-0.000897,0.082850,0.999942,0.005521,-0.007179,-0.005851,0.212776,0.295895,0.152452,-0.918657,-11.203830,37.483153,-157.730676
46181,-6.275392,-1.071413,7.858273,0.400836,-0.333964,0.287134,1.019526,-1.498433,-1.109168,-0.063400,-0.010763,0.078055,0.999944,0.005098,-0.007492,-0.005546,0.207358,0.289217,0.147832,-0.922768,-10.966397,36.517605,-158.298448
46182,-5.935059,-0.607916,7.969257,0.443947,-0.794896,0.100572,1.005086,-1.411408,-1.066867,-0.059944,-0.006159,0.079240,0.999948,0.005025,-0.007057,-0.005334,0.202071,0.282927,0.143286,-0.926601,-10.717537,35.607426,-158.846225
46183,-6.319538,-0.621825,8.321163,0.696943,-0.722642,0.606283,0.830975,-1.446820,-1.016177,-0.063827,-0.006239,0.082726,0.999952,0.004155,-0.007234,-0.005081,0.197268,0.276305,0.139430,-0.930215,-10.537969,34.684427,-159.352746
46184,-6.000582,-0.600843,8.411816,0.563122,-0.794677,0.491478,0.620401,-1.505075,-0.966288,-0.060665,-0.005976,0.083645,0.999955,0.003102,-0.007525,-0.004831,0.193013,0.269213,0.136410,-0.933629,-10.446708,33.734692,-159.814566
46185,-5.412308,-1.123940,8.135256,0.149641,-0.334481,0.015959,0.491864,-1.528874,-0.871803,-0.054792,-0.011201,0.080908,0.999958,0.002459,-0.007644,-0.004359,0.189370,0.261928,0.133832,-0.936815,-10.384678,32.781974,-160.206431
46186,-5.240007,-1.520610,7.903627,0.089368,0.121055,-0.209950,0.598116,-1.500264,-0.712534,-0.053045,-0.015253,0.078594,0.999961,0.002991,-0.007501,-0.003563,0.186301,0.254963,0.130560,-0.939809,-10.200081,31.862270,-160.493602
46187,-5.552895,-1.504088,8.284301,0.316538,0.154698,0.267002,0.806919,-1.486217,-0.519663,-0.056182,-0.015228,0.082366,0.999961,0.004035,-0.007431,-0.002598,0.183847,0.248365,0.126067,-0.942668,-9.828068,30.971033,-160.657534
46188,-6.121589,-1.934376,8.816124,0.510933,0.652919,1.061546,1.044144,-1.595890,-0.315955,-0.061947,-0.019704,0.087567,0.999953,0.005221,-0.007979,-0.001580,0.182113,0.241574,0.120088,-0.945545,-9.247094,30.038227,-160.682618
46189,-6.080992,-1.913834,9.046057,0.530213,0.724681,1.217317,1.444977,-1.787551,-0.067048,-0.061621,-0.019768,0.089771,0.999934,0.007225,-0.008938,-0.000335,0.181165,0.234366,0.111729,-0.948561,-8.353854,29.019266,-160.540185
46190,-6.237505,-1.238556,9.278283,0.970882,0.318901,1.388897,1.805478,-1.976575,0.213619,-0.063273,-0.013286,0.092043,0.999910,0.009027,-0.009883,0.001068,0.181204,0.226707,0.101140,-0.951598,-7.172307,27.912453,-160.222121
46191,-7.043442,-0.515279,10.133983,1.737381,-0.045752,2.416036,1.938400,-2.251863,0.440158,-0.071556,-0.006286,0.100481,0.999887,0.009692,-0.011259,0.002201,0.182272,0.217929,0.089395,-0.954616,-5.859127,26.658115,-159.769678
46192,-7.527144,0.120455,10.821637,2.324766,-0.310727,3.158964,1.822272,-2.717812,0.555737,-0.076734,0.000013,0.107184,0.999862,0.009111,-0.013588,0.002779,0.184182,0.206817,0.077628,-0.957746,-4.594126,25.134935,-159.253624
46193,-6.298100,0.218281,10.589411,1.662508,-0.393160,2.390377,1.529962,-3.158276,0.657069,-0.064648,0.001167,0.104893,0.999841,0.007649,-0.015791,0.003285,0.186994,0.193308,0.066731,-0.960839,-3.493349,23.355317,-158.696244
46194,-4.192643,-0.251530,9.420447,0.353588,-0.116292,0.494372,1.386060,-3.377406,0.781799,-0.043497,-0.003333,0.093458,0.999826,0.006930,-0.016886,0.003909,0.190557,0.178585,0.056174,-0.963660,-2.475585,21.444463,-158.097786
46195,-2.025655,0.125228,8.397772,-0.809672,-0.777092,-1.246830,1.382274,-3.264388,0.907731,-0.021627,0.000577,0.083638,0.999833,0.006911,-0.016321,0.004538,0.194631,0.164382,0.045614,-0.965928,-1.467749,19.591889,-157.468711
46196,-1.153433,0.428078,7.767038,-1.075038,-1.063863,-2.095982,1.278984,-2.903238,1.006166,-0.012680,0.003723,0.077517,0.999862,0.006395,-0.014516,0.005031,0.199125,0.151790,0.035806,-0.967485,-0.531981,17.936896,-156.823844
46197,-1.905173,0.348853,8.162205,-0.400880,-0.571500,-1.453218,1.136997,-2.530821,1.064101,-0.020099,0.002920,0.081390,0.999890,0.005685,-0.012654,0.005320,0.203890,0.140834,0.027005,-0.968434,0.306135,16.486532,-156.177319
46198,-3.857176,-0.780413,9.229135,0.731340,1.308812,0.107469,1.087155,-2.419632,1.145163,-0.039637,-0.008529,0.091771,0.999896,0.005436,-0.012098,0.005726,0.209024,0.130343,0.018494,-0.969008,1.106645,15.090171,-155.507966
46199,-4.770125,-0.821923,9.651251,1.576021,1.931618,0.692142,1.394479,-2.671973,1.267002,-0.048928,-0.009196,0.095802,0.999866,0.006972,-0.013359,0.006335,0.214521,0.118935,0.008149,-0.969417,2.076552,13.538036,-154.797817
46200,-3.095401,1.434005,9.298439,1.308641,-0.500521,-0.008305,1.425086,-2.900253,1.335971,-0.032391,0.013466,0.092620,0.999847,0.007125,-0.014501,0.006680,0.220283,0.106418,-0.002635,-0.969610,3.045200,11.841579,-154.084930
46201,-1.181888,2.383750,8.437027,0.407695,-1.897130,-1.181916,0.928755,-2.850210,1.407450,-0.013186,0.023356,0.084298,0.999863,0.004644,-0.014250,0.007037,0.226591,0.093570,-0.010992,-0.969423,3.711432,10.162213,-153.357913
46202,-0.395320,0.948085,7.812101,-0.611881,-0.768446,-1.995071,0.629734,-2.543290,1.539709,-0.005018,0.009199,0.078091,0.999885,0.003149,-0.012716,0.007698,0.233640,0.081834,-0.017614,-0.968713,4.197665,8.645315,-152.562651
46203,-1.146244,-0.231924,8.364353,-0.430268,0.775875,-1.413915,0.819068,-2.261267,1.704847,-0.012385,-0.002764,0.083496,0.999891,0.004095,-0.011306,0.008524,0.241383,0.071658,-0.024886,-0.967461,4.785082,7.275380,-151.676902
46204,-1.959066,0.129780,9.169897,0.449039,1.041365,-0.504065,1.127858,-2.210619,1.824204,-0.020610,0.000597,0.091480,0.999881,0.005639,-0.011053,0.009121,0.249545,0.062063,-0.033629,-0.965787,5.534569,5.917488,-150.738713
46205,-1.454160,0.971312,9.746902,0.467023,0.306367,0.073760,1.086630,-2.274302,1.870462,-0.015736,0.009041,0.097345,0.999877,0.005433,-0.011371,0.009352,0.257871,0.052092,-0.042257,-0.963848,6.238081,4.509485,-149.797610
46206,-1.387948,0.569463,9.528740,0.379385,0.838653,-0.210897,1.100575,-2.297411,1.936363,-0.015024,0.005029,0.095148,0.999872,0.005503,-0.011487,0.009681,0.266442,0.041995,-0.050990,-0.961585,6.927511,3.072096,-148.839409
46207,-0.327116,1.591875,9.467637,0.145010,-0.359904,-0.214749,1.085207,-2.333720,1.906024,-0.004524,0.015366,0.094713,0.999872,0.005426,-0.011668,0.009530,0.274791,0.031706,-0.059675,-0.959126,7.582224,1.605833,-147.919433
46208,1.471430,1.754135,8.682134,-1.058138,-1.337598,-0.997459,0.739838,-2.204273,1.868161,0.013593,0.017350,0.087040,0.999889,0.003699,-0.011021,0.009340,0.282987,0.021561,-0.066509,-0.956572,8.015734,0.206649,-147.025408
46209,1.950780,0.662591,8.052527,-1.853113,-0.631085,-1.734750,0.670553,-1.882714,1.829470,0.018688,0.006529,0.080726,0.999908,0.003353,-0.009413,0.009147,0.291054,0.012869,-0.072537,-0.953866,8.389109,-1.012682,-146.137083
46210,1.021871,0.405412,8.836570,-1.170628,0.320899,-0.991230,0.867479,-1.568601,1.805113,0.009490,0.003758,0.088459,0.999919,0.004337,-0.007843,0.009025,0.299057,0.005964,-0.079035,-0.950938,8.857672,-2.059065,-145.244170
46211,-0.384362,0.680777,9.647200,0.169808,1.175785,-0.207213,1.100907,-1.535528,1.805503,-0.004642,0.006237,0.096474,0.999915,0.005504,-0.007677,0.009027,0.307017,-0.000433,-0.086578,-0.947758,9.443937,-3.094492,-144.357167
46212,0.705112,1.859516,10.058311,0.034595,-0.140275,0.439125,1.064937,-1.628914,1.765896,0.006070,0.018116,0.100733,0.999914,0.005325,-0.008144,0.008829,0.314697,-0.007314,-0.094081,-0.944490,9.995833,-4.188028,-143.511036
46213,1.826110,1.557432,8.299694,-0.866312,-0.723709,-1.247137,0.912099,-1.541200,1.651170,0.017493,0.015342,0.083204,0.999926,0.004560,-0.007706,0.008256,0.321819,-0.013962,-0.100711,-0.941326,10.449615,-5.227312,-142.729417
46214,2.828614,2.440309,8.551474,-1.035054,-1.834847,-0.721824,0.737857,-1.292364,1.497276,0.027550,0.024295,0.085784,0.999944,0.003689,-0.006462,0.007486,0.328289,-0.019644,-0.106120,-0.938392,10.797182,-6.116125,-142.014556
46215,2.130168,0.837859,8.539509,-1.400617,-0.089117,-1.083868,0.657901,-0.983042,1.453112,0.020821,0.008250,0.085525,0.999956,0.003289,-0.004915,0.007265,0.334675,-0.023978,-0.110639,-0.935509,11.088372,-6.829745,-141.294801
46216,0.850034,1.124070,9.600206,-0.218515,0.835426,-0.148173,1.050883,-0.872986,1.495852,0.007999,0.010797,0.096095,0.999949,0.005254,-0.004365,0.007479,0.341336,-0.027163,-0.116798,-0.932261,11.592138,-7.491631,-140.542297
46217,-0.223644,2.612648,10.510688,1.556240,0.789932,0.878494,1.227021,-0.973829,1.579733,-0.002952,0.025460,0.105251,0.999938,0.006135,-0.004869,0.007899,0.348315,-0.030562,-0.123923,-0.928647,12.183455,-8.226768,-139.759543
46218,0.869308,3.759612,10.207208,1.545925,-0.628539,0.971052,0.882337,-1.225883,1.588843,0.007770,0.037209,0.102286,0.999940,0.004412,-0.006129,0.007944,0.355085,-0.035735,-0.129872,-0.925079,12.571135,-9.110978,-139.007722
46219,3.850145,2.547863,8.344292,-1.331467,-2.054216,-0.595964,0.375353,-1.169789,1.491876,0.037822,0.025606,0.083713,0.999953,0.001877,-0.005849,0.007459,0.361314,-0.041479,-0.133378,-0.921923,12.665350,-9.954383,-138.305758
46220,4.059967,1.097089,7.848207,-2.367413,-1.243949,-1.319827,0.477918,-0.719872,1.352348,0.040242,0.011056,0.078654,0.999968,0.002390,-0.003599,0.006762,0.367192,-0.044871,-0.136565,-0.918970,12.813666,-10.530603,-137.625516
46221,2.352558,1.755891,9.209921,-0.652306,-0.123939,-0.169091,0.650723,-0.506319,1.246047,0.023183,0.017404,0.092215,0.999972,0.003254,-0.002532,0.006230,0.372745,-0.046887,-0.140168,-0.916087,13.061243,-10.976082,-136.978727
46222,2.617939,1.931000,9.316182,-0.689251,-0.321016,0.025758,0.515438,-0.508903,1.171411,0.025829,0.019222,0.093277,0.999976,0.002577,-0.002544,0.005857,0.377902,-0.049114,-0.143167,-0.913390,13.234873,-11.415769,-136.375424
46223,1.841269,1.802177,9.602085,-0.208493,0.448737,0.116702,0.701791,-0.435687,1.185554,0.018097,0.017793,0.096123,0.999974,0.003509,-0.002178,0.005928,0.383204,-0.050662,-0.146868,-0.910504,13.507430,-11.818725,-135.755018
46224,1.057509,3.344717,10.252835,1.442863,0.263290,0.923865,0.834368,-0.569246,1.252265,0.010075,0.033083,0.102696,0.999968,0.004172,-0.002846,0.006261,0.388722,-0.052610,-0.151403,-0.907306,13.847456,-12.308409,-135.116345
46225,2.927780,3.890687,9.319498,0.610008,-1.569164,0.566468,0.392064,-0.684321,1.220437,0.028721,0.038900,0.093370,0.999974,0.001960,-0.003422,0.006102,0.393869,-0.055911,-0.154154,-0.904421,13.935973,-12.859886,-134.512647
46226,3.437326,2.232196,8.736845,-0.864052,-0.983835,-0.251549,0.092028,-0.524161,1.059684,0.034025,0.022463,0.087468,0.999982,0.000460,-0.002621,0.005298,0.398312,-0.058954,-0.155272,-0.902088,13.862915,-13.300405,-133.976984
46227,1.975857,0.574463,9.837831,-1.068068,1.487623,0.069770,0.204934,-0.401904,0.917486,0.019534,0.005734,0.098424,0.999987,0.001025,-0.002010,0.004587,0.402228,-0.061108,-0.156692,-0.899959,13.865662,-13.653011,-133.504275
46228,0.684644,0.933407,10.504351,0.070925,2.457073,0.465366,0.599630,-0.643231,0.888564,0.006468,0.009048,0.105092,0.999980,0.002998,-0.003216,0.004443,0.405933,-0.063530,-0.160378,-0.897475,14.103371,-14.136809,-133.082447
46229,3.288163,2.839999,9.478545,-0.178583,-0.822600,0.580142,0.449433,-0.802942,0.766917,0.032392,0.028312,0.094980,0.999982,0.002247,-0.004015,0.003835,0.408902,-0.066872,-0.163745,-0.895274,14.274519,-14.693520,-132.754332
46230,4.007353,1.678622,8.412051,-1.459567,-0.923229,-0.503759,0.127112,-0.646102,0.569243,0.039754,0.016846,0.084260,0.999991,0.000636,-0.003231,0.002846,0.410994,-0.070009,-0.165411,-0.893768,14.281719,-15.135881,-132.517048
46231,3.484626,1.130213,8.567850,-1.498924,-0.119076,-0.616660,0.251553,-0.435776,0.393377,0.034637,0.011263,0.085768,0.999995,0.001258,-0.002179,0.001967,0.412512,-0.071803,-0.167259,-0.892582,14.377136,-15.436699,-132.350001
46232,2.492428,2.034747,9.599318,-0.159239,0.453122,0.300099,0.244363,-0.370219,0.225513,0.024724,0.020258,0.096064,0.999997,0.001222,-0.001851,0.001128,0.413330,-0.073179,-0.169000,-0.891763,14.491219,-15.677510,-132.270321
46233,1.697426,1.820804,9.998720,0.205188,1.338220,0.401902,0.180880,-0.449861,0.111644,0.016739,0.018127,0.100041,0.999997,0.000904,-0.002249,0.000558,0.413548,-0.074945,-0.170662,-0.891199,14.589608,-15.946250,-132.268460
46234,2.324587,1.792146,9.855155,-0.196800,0.907910,0.428221,0.129401,-0.603640,0.001328,0.022948,0.017858,0.098633,0.999995,0.000647,-0.003018,0.000007,0.413119,-0.077407,-0.172454,-0.890843,14.682933,-16.284274,-132.353984
46235,3.145895,1.439497,8.994527,-0.968303,0.274772,-0.228487,0.210732,-0.618651,-0.090730,0.031187,0.014286,0.090057,0.999995,0.001054,-0.003093,-0.000454,0.412296,-0.079689,-0.174670,-0.890591,14.839011,-16.616906,-132.495769
46236,3.520786,2.362857,8.960151,-0.494598,-0.496198,0.075295,0.288440,-0.544899,-0.176279,0.034984,0.023468,0.089731,0.999995,0.001442,-0.002724,-0.000881,0.411181,-0.081405,-0.177115,-0.890468,15.051995,-16.895721,-132.677094
46237,3.124386,2.560004,9.239703,-0.082870,-0.173597,0.269490,0.219437,-0.462238,-0.238109,0.031061,0.025462,0.092497,0.999996,0.001097,-0.002311,-0.001191,0.409834,-0.082841,-0.179104,-0.890559,15.232900,-17.118938,-132.882332
46238,2.773392,2.529670,9.438797,0.128738,0.218178,0.341988,0.202852,-0.504906,-0.240554,0.027526,0.025168,0.094483,0.999996,0.001014,-0.002525,-0.001203,0.408427,-0.084498,-0.181109,-0.890644,15.408164,-17.364780,-133.096885
46239,3.550249,2.796810,9.116506,-0.169842,-0.556954,0.345944,0.245938,-0.491091,-0.211228,0.035308,0.027819,0.091286,0.999996,0.001230,-0.002455,-0.001056,0.407178,-0.086031,-0.183260,-0.890629,15.603214,-17.606794,-133.293208
46240,3.070372,3.068629,9.436438,0.355014,-0.205570,0.566208,0.281253,-0.477575,-0.143435,0.030500,0.030532,0.094480,0.999996,0.001406,-0.002388,-0.000717,0.406255,-0.087493,-0.185514,-0.890442,15.807359,-17.851242,-133.449375
46241,3.837236,3.183647,8.938858,-0.054471,-0.949544,0.378402,0.239837,-0.495295,-0.049724,0.038159,0.031720,0.089521,0.999996,0.001199,-0.002476,-0.000249,0.405712,-0.089205,-0.187574,-0.890088,15.972598,-18.119670,-133.555083
46242,4.265836,3.031042,8.457934,-0.443993,-1.300495,0.037828,0.231734,-0.367821,0.014627,0.042500,0.030215,0.084693,0.999998,0.001159,-0.001839,0.000073,0.405568,-0.090425,-0.189312,-0.889662,16.115888,-18.327828,-133.603279
46243,3.573288,2.953954,8.876714,-0.041298,-0.567593,0.185628,0.275773,-0.238478,0.100047,0.035612,0.029435,0.088850,0.999998,0.001379,-0.001192,0.000500,0.405945,-0.091063,-0.190943,-0.889077,16.261995,-18.478447,-133.580646
46244,2.700970,3.439767,9.552860,0.904026,0.059541,0.654567,0.292183,-0.251498,0.196111,0.026856,0.034284,0.095613,0.999998,0.001461,-0.001257,0.000981,0.406742,-0.091815,-0.192630,-0.888271,16.400763,-18.651653,-133.505004
46245,2.774241,2.771327,9.480314,0.359998,0.417316,0.431780,0.207506,-0.332340,0.270695,0.027547,0.027652,0.094878,0.999997,0.001038,-0.001662,0.001353,0.407752,-0.093170,-0.194069,-0.887353,16.481194,-18.881605,-133.400083
46246,3.696378,2.744908,8.600180,-0.251916,-0.525491,-0.075080,0.452307,-0.325215,0.447173,0.036763,0.027337,0.086124,0.999994,0.002262,-0.001626,0.002236,0.409661,-0.094164,-0.196497,-0.885833,16.667995,-19.136630,-133.191940
46247,4.753699,4.648799,8.104739,0.529125,-2.528540,0.347135,0.609671,-0.167004,0.725099,0.047301,0.046412,0.081229,0.999988,0.003048,-0.000835,0.003625,0.413024,-0.094408,-0.199162,-0.883647,16.881835,-19.351598,-132.795155
46248,4.560503,4.669699,7.983667,0.695655,-2.413477,0.189024,0.494772,0.058618,1.011370,0.045392,0.046729,0.079939,0.999984,0.002474,0.000293,0.005057,0.417811,-0.094173,-0.200714,-0.881067,16.960314,-19.491497,-132.192331
46249,3.735525,4.636723,8.683496,1.222343,-1.481850,0.539428,0.496592,0.188882,1.227408,0.037153,0.046380,0.086915,0.999978,0.002483,0.000944,0.006137,0.423664,-0.093576,-0.201894,-0.878061,16.988817,-19.596918,-131.440449
46250,3.485239,3.635885,9.226810,0.624688,-0.487079,0.669344,0.257620,0.177414,1.276646,0.034702,0.036462,0.092284,0.999978,0.001288,0.000887,0.006383,0.429592,-0.093579,-0.202015,-0.875148,16.869780,-19.716043,-130.661319
46251,2.863574,1.780646,9.632177,-0.438355,1.159361,0.317135,0.278802,0.114519,1.198192,0.028584,0.017844,0.096330,0.999981,0.001394,0.000573,0.005991,0.435104,-0.093730,-0.202395,-0.872316,16.780376,-19.855570,-129.938220
46252,3.091656,1.603329,9.841986,-0.706514,1.191982,0.534953,0.310103,-0.040037,1.012745,0.030816,0.016037,0.098451,0.999986,0.001551,-0.000200,0.005064,0.439652,-0.094295,-0.203326,-0.869755,16.752619,-20.048285,-129.349542
46253,3.911542,1.042219,9.067985,-1.617996,0.569750,-0.031472,0.240708,-0.097935,0.786931,0.039030,0.010467,0.090712,0.999991,0.001204,-0.000490,0.003935,0.443116,-0.095033,-0.204185,-0.867712,16.732012,-20.235460,-128.902227
46254,3.986051,1.687065,8.841440,-1.125872,0.090780,-0.033628,0.347373,-0.025641,0.644618,0.039795,0.016845,0.088449,0.999993,0.001737,-0.000128,0.003223,0.446081,-0.095074,-0.205410,-0.865898,16.795637,-20.359414,-128.525028
46255,3.703538,2.636970,8.760392,-0.181826,-0.215188,0.053157,0.268471,0.022685,0.612476,0.036965,0.026365,0.087635,0.999994,0.001342,0.000113,0.003062,0.448913,-0.095050,-0.206199,-0.864248,16.816828,-20.452061,-128.157865
46256,3.610068,3.039448,8.657523,0.214964,-0.389664,0.037464,0.126873,0.084007,0.603749,0.036045,0.030448,0.086579,0.999995,0.000634,0.000420,0.003019,0.451698,-0.095066,-0.206240,-0.862784,16.754443,-20.509241,-127.784833
46257,3.368185,2.379025,8.517861,-0.167362,0.060597,-0.350833,0.057860,0.127807,0.617033,0.033663,0.023869,0.085164,0.999995,0.000289,0.000639,0.003085,0.454549,-0.095064,-0.205876,-0.861373,16.646673,-20.544336,-127.396055
46258,3.846057,2.873539,8.018731,-0.005707,-0.769009,-0.498289,0.185441,0.208293,0.719442,0.038441,0.028799,0.080174,0.999993,0.000927,0.001041,0.003597,0.457978,-0.094527,-0.205827,-0.859625,16.585874,-20.551202,-126.933098
46259,5.237736,3.806020,6.807090,0.038948,-2.817201,-0.850664,0.270031,0.443368,1.049585,0.052328,0.038243,0.068006,0.999983,0.001350,0.002217,0.005248,0.463097,-0.093126,-0.205443,-0.857124,16.491547,-20.482528,-126.235620
46260,5.181194,5.527982,6.659651,1.552781,-3.689013,-0.553415,0.524236,0.853740,1.515416,0.051676,0.055497,0.066521,0.999959,0.002621,0.004269,0.007577,0.470725,-0.089849,-0.204968,-0.853424,16.425036,-20.262740,-125.194850
46261,4.529086,5.338382,7.248434,1.784506,-2.862213,-0.316715,0.249643,1.086299,1.874345,0.045182,0.053717,0.072306,0.999941,0.001248,0.005431,0.009372,0.479951,-0.086587,-0.202596,-0.849178,16.120648,-19.970062,-123.906626
46262,4.074312,3.398191,7.359847,0.422067,-1.619169,-0.895582,0.405580,1.327812,2.101413,0.040872,0.034262,0.073397,0.999921,0.002028,0.006639,0.010507,0.490387,-0.082141,-0.200177,-0.844217,15.855480,-19.573619,-122.449301
46263,3.301673,2.967030,8.129966,0.416871,-0.557540,-0.576040,0.567050,1.451445,2.250952,0.033271,0.029814,0.081143,0.999906,0.002835,0.007257,0.011254,0.501558,-0.076916,-0.198045,-0.838631,15.659476,-19.127457,-120.889866
46264,3.246750,2.505228,7.925760,0.049274,-0.471900,-0.901477,0.785191,1.558600,2.373108,0.032786,0.025129,0.079101,0.999892,0.003926,0.007793,0.011865,0.513331,-0.070796,-0.196467,-0.832394,15.573172,-18.636668,-119.247138
46265,3.001210,3.831680,8.252594,1.293826,-0.723320,-0.347121,0.804918,1.708744,2.484957,0.030240,0.038360,0.082423,0.999878,0.004024,0.008543,0.012424,0.525604,-0.064099,-0.194506,-0.825711,15.486569,-18.078564,-117.521099
46266,3.429923,3.101563,7.467729,0.536636,-1.182925,-1.125733,0.619331,1.838926,2.641293,0.034573,0.031240,0.074457,0.999866,0.003097,0.009194,0.013206,0.538456,-0.057483,-0.191331,-0.818629,15.278113,-17.467310,-115.690672
46267,2.806485,3.209896,7.759004,0.865935,-0.658130,-1.026430,0.741492,2.113054,2.691420,0.028451,0.032193,0.077410,0.999847,0.003707,0.010565,0.013456,0.551654,-0.049452,-0.187856,-0.811137,15.142472,-16.707622,-113.797146
46268,1.535170,3.424495,8.626510,1.421267,0.610688,-0.533310,0.488267,2.161509,2.633069,0.015833,0.034241,0.086179,0.999852,0.002441,0.010807,0.013165,0.564432,-0.041850,-0.183170,-0.803812,14.896181,-15.905585,-111.939936
46269,0.994459,1.568773,9.407099,-0.247203,1.788559,-0.395612,0.230821,2.120758,2.535907,0.010742,0.015712,0.093978,0.999863,0.001154,0.010603,0.012679,0.576567,-0.035040,-0.177541,-0.796757,14.547685,-15.103571,-110.156730
46270,1.423393,0.243762,8.819343,-1.593913,1.413701,-1.133715,0.582507,2.040566,2.388076,0.015104,0.002358,0.088049,0.999872,0.002912,0.010202,0.011940,0.587951,-0.027391,-0.173515,-0.789592,14.451055,-14.317350,-108.479867
46271,0.332005,0.846387,9.900623,-0.956991,2.442396,-0.222858,0.729431,1.979502,2.172933,0.004210,0.008145,0.098998,0.999885,0.003647,0.009897,0.010864,0.598310,-0.019362,-0.170241,-0.782731,14.494508,-13.534171,-106.941353
46272,0.354216,0.745393,9.955298,-1.179502,2.319817,-0.168324,0.791980,1.732864,1.887761,0.004337,0.007098,0.099546,0.999910,0.003960,0.008664,0.009439,0.607227,-0.011862,-0.167937,-0.776487,14.638782,-12.848419,-105.605056
46273,1.251335,0.455316,9.778031,-1.758401,1.356881,-0.197711,0.844965,1.581832,1.566336,0.013252,0.004242,0.097696,0.999929,0.004225,0.007909,0.007831,0.614675,-0.004517,-0.166293,-0.771039,14.873415,-12.204262,-104.475041
46274,1.544189,0.301842,9.440888,-2.003271,0.894703,-0.496550,0.972809,1.477981,1.297161,0.016121,0.002663,0.094305,0.999940,0.004864,0.007390,0.006486,0.620921,0.003047,-0.165441,-0.766210,15.227832,-11.582699,-103.512292
46275,2.544931,0.311362,8.608003,-2.138747,-0.386393,-1.097988,1.124847,1.489392,1.063192,0.026074,0.002768,0.085904,0.999942,0.005624,0.007447,0.005316,0.626205,0.011317,-0.165115,-0.761890,15.704677,-10.926375,-102.677080
46276,2.681063,1.380953,8.410644,-1.198467,-0.852309,-0.999667,1.227206,1.658483,0.818911,0.027452,0.013406,0.083964,0.999938,0.006136,0.008292,0.004094,0.630618,0.020755,-0.164614,-0.758151,16.269887,-10.145411,-101.947602
46277,2.138736,2.145757,8.474528,-0.477075,-0.553833,-0.842769,1.141909,1.852053,0.611625,0.022107,0.021041,0.084664,0.999936,0.005709,0.009260,0.003058,0.634335,0.030821,-0.163139,-0.755019,16.809654,-9.231805,-101.295807
46278,-1.323020,3.959085,10.409243,1.276558,2.807161,0.969826,1.270794,1.920786,0.577257,-0.012341,0.038891,0.104462,0.999930,0.006354,0.009604,0.002886,0.637873,0.041584,-0.161904,-0.751782,17.433970,-8.280806,-100.643783
46279,-0.964671,5.402933,11.168861,2.221884,2.290931,2.215549,0.706087,1.419486,0.610971,-0.009017,0.053606,0.111944,0.999964,0.003530,0.007097,0.003055,0.641183,0.048626,-0.160135,-0.748917,17.752195,-7.615162,-100.054201
46280,1.696518,2.419912,9.068403,-0.541558,-0.401683,-0.298773,0.228824,1.251403,0.555963,0.017465,0.024144,0.090603,0.999976,0.001144,0.006257,0.002780,0.644229,0.053553,-0.157095,-0.746608,17.811061,-7.033128,-99.523271
46281,2.298312,0.983008,8.140717,-1.768955,-1.075438,-1.552371,0.559857,1.435904,0.438826,0.023546,0.009654,0.081267,0.999968,0.002799,0.007179,0.002194,0.646858,0.060322,-0.154656,-0.744324,18.068865,-6.331576,-99.022898
46282,2.536491,1.432964,7.907391,-1.363203,-1.513453,-1.635676,0.740252,1.664284,0.329145,0.025999,0.014080,0.078912,0.999957,0.003701,0.008321,0.001646,0.649152,0.068608,-0.152105,-0.742131,18.438549,-5.488536,-98.538269
46283,3.079019,0.768819,6.837955,-1.805360,-2.247733,-2.847385,0.938525,1.980875,0.230849,0.031457,0.007404,0.068105,0.999939,0.004693,0.009904,0.001154,0.651189,0.078774,-0.149213,-0.739921,18.928470,-4.459693,-98.043193
46284,2.935769,1.991264,6.679367,-0.656940,-2.401193,-2.671432,1.292060,2.477103,0.101396,0.030173,0.019497,0.066550,0.999902,0.006460,0.012385,0.000507,0.652873,0.092017,-0.145938,-0.737558,19.629188,-3.142735,-97.514392
46285,1.081668,4.171002,7.532143,1.243144,-0.894968,-1.271657,1.282611,2.916811,-0.017441,0.011920,0.041226,0.075418,0.999873,0.006413,0.014583,-0.000087,0.654301,0.106908,-0.141107,-0.735221,20.335797,-1.573020,-96.947943
46286,-0.450100,5.164688,8.424037,1.926827,0.354427,-0.117524,0.897781,3.094880,-0.034958,-0.003185,0.051269,0.084527,0.999870,0.004489,0.015474,-0.000175,0.655826,0.121188,-0.134233,-0.732930,20.837792,0.090387,-96.339013
46287,-1.024024,4.828674,8.704294,1.469266,0.713904,0.059207,0.606038,3.137337,0.001626,-0.008872,0.048022,0.087335,0.999872,0.003030,0.015686,0.000008,0.657524,0.134605,-0.126140,-0.730501,21.190712,1.763703,-95.689327
46288,-1.631191,4.514889,9.084134,1.003128,1.083545,0.354854,0.518738,3.117328,0.035585,-0.014900,0.044910,0.091198,0.999875,0.002594,0.015586,0.000178,0.659225,0.147612,-0.117783,-0.727846,21.513856,3.416096,-95.015265
46289,-2.447135,3.976956,9.617796,0.283703,1.659553,0.744985,0.421097,2.984110,0.041133,-0.023040,0.039562,0.096612,0.999886,0.002105,0.014920,0.000206,0.660784,0.159770,-0.109488,-0.725155,21.798699,4.992202,-94.356563
46290,-2.917599,2.782107,9.772164,-0.936171,1.966960,0.531175,0.445896,2.747750,0.013738,-0.027831,0.027601,0.098172,0.999903,0.002229,0.013738,0.000069,0.661956,0.171139,-0.102016,-0.722578,22.109724,6.445708,-93.753636
46291,-2.895168,1.784162,9.681329,-1.923080,1.799716,0.104481,0.690539,2.513196,-0.057473,-0.027727,0.017514,0.097228,0.999915,0.003453,0.012566,-0.000287,0.662422,0.182472,-0.096126,-0.720182,22.565617,7.785993,-93.228759
46292,-2.967464,1.440725,9.418446,-2.251680,1.704640,-0.241512,1.079750,2.305831,-0.188626,-0.028572,0.013925,0.094594,0.999919,0.005399,0.011529,-0.000943,0.661850,0.194384,-0.092188,-0.718102,23.241656,9.041231,-92.805617
46293,-3.243013,2.269054,9.585771,-1.693284,1.655330,0.283833,1.378016,2.105729,-0.377117,-0.031375,0.022088,0.096345,0.999919,0.006890,0.010528,-0.001886,0.660114,0.206616,-0.089783,-0.716588,24.075439,10.228985,-92.511297
46294,-3.249769,2.191803,9.240764,-1.773194,1.525659,-0.051526,1.405527,1.874566,-0.552687,-0.031569,0.021355,0.092858,0.999928,0.007027,0.009373,-0.002763,0.657514,0.218162,-0.088047,-0.715771,24.906865,11.333744,-92.347455
46295,-2.710260,1.764132,8.349658,-1.947215,1.023999,-1.133378,1.688388,1.750623,-0.728499,-0.026307,0.017031,0.083875,0.999919,0.008442,0.008753,-0.003642,0.653824,0.230234,-0.087521,-0.715434,25.880964,12.414869,-92.289343
46296,-2.821948,3.075616,8.280469,-0.902577,0.814654,-0.619996,1.988047,1.744111,-0.880722,-0.027361,0.030051,0.083347,0.999903,0.009940,0.008720,-0.004403,0.649125,0.243293,-0.087901,-0.715345,27.014822,13.530266,-92.292409
46297,-2.259025,3.751159,7.432473,-0.100715,0.163933,-1.188616,1.792325,1.774844,-1.061944,-0.021730,0.036959,0.074853,0.999906,0.008961,0.008874,-0.005310,0.643909,0.255856,-0.087239,-0.715758,28.019712,14.709211,-92.360641
46298,-1.693392,4.439590,6.664524,0.700583,-0.516550,-1.674455,1.716270,2.075999,-1.302671,-0.015951,0.043927,0.067193,0.999888,0.008581,0.010380,-0.006513,0.637926,0.269308,-0.085015,-0.716447,28.975174,16.106468,-92.448632
46299,-3.235234,6.241673,7.047398,1.983106,0.338686,-0.064089,1.749518,2.312927,-1.352795,-0.031110,0.062008,0.071382,0.999872,0.008747,0.011564,-0.006764,0.631669,0.283669,-0.082062,-0.716793,29.966366,17.637350,-92.468897
46300,-4.347752,8.609951,7.718581,3.551900,0.495792,2.008371,1.345382,2.401566,-1.272106,-0.041995,0.085846,0.078274,0.999885,0.006727,0.012007,-0.006360,0.626157,0.296973,-0.077480,-0.716750,30.756025,19.188736,-92.395069
46301,-4.963213,8.169892,7.893699,2.987396,0.813912,2.191330,0.495224,2.246064,-1.041195,-0.048314,0.081756,0.079687,0.999920,0.002476,0.011230,-0.005206,0.622555,0.306909,-0.070663,-0.716407,31.090044,20.595086,-92.232481
46302,-3.873458,6.153213,7.289489,1.507212,0.138413,0.370980,-0.032170,2.142273,-0.922616,-0.037666,0.061719,0.073292,0.999932,-0.000161,0.010711,-0.004613,0.620057,0.314748,-0.062455,-0.715935,31.139060,21.914763,-92.033867
46303,-3.413210,4.407945,7.205999,0.052997,-0.104533,-0.702906,-0.345863,2.328946,-1.092125,-0.033049,0.044387,0.072372,0.999916,-0.001729,0.011644,-0.005460,0.617411,0.322287,-0.052266,-0.715684,31.001187,23.376517,-91.864789
46304,-5.499669,2.383505,8.146893,-2.100484,1.736244,-0.072692,-0.008712,2.213482,-1.194126,-0.053947,0.024163,0.082069,0.999921,-0.000044,0.011067,-0.005970,0.613726,0.330428,-0.043470,-0.715729,31.023142,24.811637,-91.787625
46305,-5.838454,2.192655,7.950915,-2.176890,1.925275,-0.134744,0.498700,1.951497,-1.283625,-0.057463,0.022098,0.080128,0.999929,0.002493,0.009757,-0.006418,0.608734,0.339158,-0.037136,-0.716265,31.281253,26.144939,-91.840435
46306,-5.784168,3.760356,8.167075,-1.014958,1.171571,0.765138,0.710226,1.828753,-1.387994,-0.056829,0.037709,0.082327,0.999928,0.003551,0.009144,-0.006940,0.602899,0.348065,-0.031754,-0.717185,31.618807,27.449382,-91.984240
46307,-5.671807,4.707508,7.928872,-0.134899,0.669334,0.991296,0.440827,1.685566,-1.475612,-0.055698,0.047313,0.079865,0.999935,0.002204,0.008428,-0.007378,0.597115,0.355611,-0.025675,-0.718565,31.754814,28.711367,-92.221056
46308,-5.085307,4.873015,7.398857,0.256818,0.078064,0.398729,0.160268,1.719171,-1.583229,-0.049827,0.049068,0.074459,0.999931,0.000801,0.008596,-0.007916,0.591368,0.362408,-0.018299,-0.720146,31.701296,30.021847,-92.508136
46309,-5.641545,4.367375,7.170789,-0.012934,0.570244,0.286391,-0.033954,1.688969,-1.591927,-0.055457,0.044130,0.072171,0.999933,-0.000170,0.008445,-0.007959,0.585858,0.368473,-0.010288,-0.721729,31.518755,31.320180,-92.817847
46310,-5.738098,4.064445,6.936229,-0.118041,0.618893,0.044065,-0.003122,1.696057,-1.570827,-0.056468,0.041091,0.069843,0.999933,-0.000016,0.008480,-0.007854,0.580290,0.374604,-0.002412,-0.723138,31.351555,32.614358,-93.121648
46311,-6.615268,4.618159,7.478854,0.102242,0.711660,1.164597,0.092716,1.608792,-1.502577,-0.065199,0.046639,0.075337,0.999939,0.000464,0.008044,-0.007513,0.574715,0.380650,0.004743,-0.724421,31.233356,33.845410,-93.424967
46312,-7.229119,5.087654,7.922966,0.295287,0.636049,2.037290,0.029025,1.334385,-1.335185,-0.071419,0.051344,0.079716,0.999955,0.000145,0.006672,-0.006676,0.569814,0.385483,0.011016,-0.725668,31.070493,34.891113,-93.734844
46313,-6.389497,4.567138,7.294859,0.183271,0.223081,0.902421,-0.167367,1.110343,-1.181873,-0.063217,0.046108,0.073262,0.999967,-0.000837,0.005552,-0.005909,0.565815,0.388922,0.017073,-0.726843,30.791797,35.781189,-94.042120
46314,-5.364856,3.666809,6.591930,-0.211753,-0.116079,-0.559559,-0.225642,1.138153,-1.248731,-0.053042,0.037075,0.066181,0.999964,-0.001128,0.005691,-0.006244,0.561647,0.392266,0.023542,-0.728098,30.452643,36.702498,-94.389388
46315,-5.747868,3.656386,6.511670,-0.130041,0.074785,-0.390148,0.078998,1.211346,-1.354317,-0.056834,0.036924,0.065477,0.999959,0.000395,0.006057,-0.006771,0.556443,0.396688,0.029320,-0.729486,30.253253,37.689867,-94.785670
46316,-6.732442,4.857949,6.975564,0.694542,-0.005576,1.008517,0.175478,1.211001,-1.335984,-0.066574,0.048964,0.070203,0.999959,0.000877,0.006055,-0.006680,0.551071,0.401348,0.034700,-0.730778,30.105914,38.670199,-95.179303
46317,-7.269624,5.518796,7.462439,1.032242,-0.272078,1.928272,-0.087385,1.061096,-1.168570,-0.071975,0.055643,0.074983,0.999969,-0.000437,0.005305,-0.005843,0.546823,0.404737,0.040295,-0.731812,29.828855,39.527680,-95.531223
46318,-7.299008,4.276628,7.430300,0.054125,0.099586,1.446073,-0.331852,0.847612,-0.989761,-0.072461,0.043249,0.074539,0.999977,-0.001659,0.004238,-0.004949,0.543740,0.406690,0.045830,-0.732701,29.425835,40.225931,-95.856144
46319,-6.759285,3.209031,7.235279,-0.727023,0.092350,0.569833,-0.292657,0.709114,-0.922659,-0.067187,0.032507,0.072544,0.999982,-0.001463,0.003546,-0.004613,0.540830,0.408242,0.050714,-0.733668,29.031177,40.835017,-96.197747
46320,-6.464622,2.924087,7.200317,-0.930201,-0.107706,0.252507,-0.167714,0.695510,-1.021706,-0.064245,0.029630,0.072202,0.999981,-0.000839,0.003478,-0.005108,0.537288,0.410041,0.055296,-0.734936,28.653537,41.462279,-96.618684
46321,-6.999707,3.171162,7.448135,-0.773393,-0.057434,0.860837,-0.076408,0.640240,-1.129514,-0.069578,0.032134,0.074692,0.999979,-0.000382,0.003201,-0.005648,0.533155,0.411836,0.059620,-0.736602,28.255475,42.089562,-97.142855
46322,-7.420847,3.536382,7.436489,-0.379381,-0.014911,1.265707,-0.096576,0.562775,-1.128243,-0.073798,0.035817,0.074556,0.999980,-0.000483,0.002814,-0.005641,0.529070,0.413275,0.063799,-0.738389,27.816517,42.673868,-97.705202
46323,-7.397972,3.774178,7.313012,-0.070044,-0.177217,1.251546,-0.103622,0.430164,-0.976498,-0.073637,0.038140,0.073269,0.999986,-0.000518,0.002151,-0.004882,0.525583,0.414241,0.067346,-0.740021,27.400383,43.147997,-98.221660
46324,-7.025332,3.574392,7.196260,-0.168056,-0.386719,0.852171,-0.140962,0.353730,-0.880107,-0.069968,0.036103,0.072061,0.999989,-0.000705,0.001769,-0.004401,0.522545,0.414847,0.070621,-0.741526,26.982537,43.554610,-98.706053
46325,-6.909989,3.017387,7.030755,-0.509486,-0.211885,0.481921,-0.163192,0.295442,-0.904098,-0.068858,0.030543,0.070385,0.999988,-0.000816,0.001477,-0.004520,0.519470,0.415161,0.073881,-0.743191,26.517292,43.935375,-99.236258
46326,-7.011172,2.780308,6.976579,-0.619023,-0.079389,0.442513,-0.065017,0.282178,-0.981342,-0.069876,0.028169,0.069855,0.999987,-0.000325,0.001411,-0.004907,0.515899,0.415643,0.076894,-0.745102,26.059544,44.325319,-99.833614
46327,-6.910903,2.513128,6.913327,-0.767675,-0.070434,0.250881,-0.147094,0.255890,-1.078546,-0.068883,0.025554,0.069203,0.999984,-0.000735,0.001279,-0.005393,0.512130,0.415764,0.080352,-0.747266,25.488776,44.722525,-100.520002
46328,-7.032489,1.565495,6.843856,-1.439630,0.410631,0.010901,-0.119774,0.271138,-1.313024,-0.070127,0.016157,0.068524,0.999977,-0.000599,0.001356,-0.006565,0.507404,0.415904,0.084223,-0.749981,24.805478,45.178890,-101.383562
46329,-7.812810,1.356030,7.330655,-1.686166,0.694965,0.831079,-0.050164,0.176244,-1.562217,-0.077954,0.014188,0.073372,0.999969,-0.000251,0.000881,-0.007811,0.501610,0.415736,0.088115,-0.753516,23.990300,45.637130,-102.480458
46330,-7.781996,1.740116,6.994595,-1.095286,0.585232,0.721456,0.055560,0.044199,-1.715024,-0.077652,0.018048,0.069968,0.999963,0.000278,0.000221,-0.008575,0.495048,0.415242,0.091581,-0.757704,23.104304,46.049083,-103.753394
46331,-7.525536,2.706786,6.912583,-0.194101,-0.109384,0.755802,-0.017055,-0.026183,-1.711345,-0.075029,0.027716,0.069114,0.999963,-0.000085,-0.000131,-0.008557,0.488644,0.414270,0.095143,-0.761942,22.141763,46.409073,-105.065244
46332,-6.956646,2.742764,6.558497,0.024360,-0.405059,0.125388,-0.115063,-0.007747,-1.742253,-0.069326,0.028070,0.065566,0.999962,-0.000575,-0.000039,-0.008711,0.482283,0.413087,0.099171,-0.766112,21.092831,46.769005,-106.412108
46333,-7.600807,2.335843,6.699445,-0.154993,0.053231,0.583574,-0.152975,0.002738,-1.761475,-0.075797,0.024078,0.066977,0.999961,-0.000765,0.000014,-0.008807,0.475882,0.411807,0.103410,-0.770232,19.992471,47.121351,-107.790562
46334,-7.637938,2.354543,6.625918,0.017401,0.012214,0.569154,-0.071232,-0.066434,-1.735625,-0.076193,0.024231,0.066225,0.999962,-0.000356,-0.000332,-0.008678,0.469414,0.410442,0.107100,-0.774415,18.922939,47.413176,-109.184839
46335,-7.486564,2.133467,6.606985,-0.076319,-0.044934,0.397262,-0.105387,-0.119300,-1.748513,-0.074714,0.022023,0.066014,0.999961,-0.000527,-0.000596,-0.008742,0.462957,0.408749,0.110826,-0.778661,17.798456,47.660702,-110.619840
46336,-7.696942,1.457662,6.775251,-0.547900,0.279259,0.526157,-0.069399,-0.154504,-1.849896,-0.076882,0.015312,0.067688,0.999957,-0.000347,-0.000773,-0.009249,0.456015,0.406918,0.114519,-0.783169,16.614450,47.886302,-112.158884
46337,-7.760685,0.214136,6.545283,-1.279948,1.056409,0.205206,-0.071366,-0.181723,-2.095728,-0.077638,0.002978,0.065381,0.999945,-0.000357,-0.000909,-0.010478,0.448084,0.404790,0.118656,-0.788217,15.258022,48.112827,-113.921677
46338,-8.305175,-0.177285,6.753479,-1.400930,1.413826,0.706451,0.126850,-0.241720,-2.392163,-0.083147,-0.000822,0.067434,0.999928,0.000634,-0.001209,-0.011961,0.438565,0.402648,0.122453,-0.794066,13.807436,48.319534,-115.958304
46339,-8.702499,-0.015007,6.818798,-1.009571,1.434185,1.102887,0.242727,-0.420222,-2.597333,-0.087161,0.000899,0.068006,0.999913,0.001214,-0.002101,-0.012986,0.428035,0.399856,0.125803,-0.800672,12.252587,48.417637,-118.216938
46340,-8.204938,0.909852,6.376161,-0.018306,0.742306,0.591628,0.378921,-0.581768,-2.593711,-0.082108,0.010043,0.063541,0.999910,0.001895,-0.002909,-0.012968,0.417276,0.396645,0.128222,-0.807535,10.755103,48.384430,-120.503542
46341,-7.297926,2.467511,6.009119,1.233307,-0.631916,-0.141323,0.340147,-0.581742,-2.434891,-0.072847,0.025461,0.059922,0.999920,0.001701,-0.002909,-0.012174,0.407161,0.393384,0.130472,-0.813908,9.338974,48.296944,-122.652081
46342,-6.603502,2.473406,5.661975,1.295993,-0.937178,-0.912010,0.048295,-0.384018,-2.287325,-0.065855,0.025474,0.056499,0.999933,0.000241,-0.001920,-0.011436,0.398036,0.390377,0.133992,-0.819280,7.876850,48.272838,-124.641696
46343,-7.644358,1.318132,6.240930,0.626357,-0.026969,0.123493,0.080537,-0.262424,-2.145715,-0.076378,0.013976,0.062315,0.999942,0.000403,-0.001312,-0.010728,0.389294,0.387973,0.137339,-0.824054,6.532932,48.275347,-126.496623
46344,-7.883235,1.124224,6.524568,0.545318,-0.009301,0.467400,0.264324,-0.357087,-1.952022,-0.078835,0.011926,0.065120,0.999950,0.001322,-0.001785,-0.009760,0.381019,0.385633,0.139343,-0.828670,5.415994,48.185784,-128.191095
46345,-7.781801,1.685936,6.703837,0.928204,-0.601157,0.537010,0.427009,-0.440768,-1.762746,-0.077814,0.017402,0.066904,0.999956,0.002135,-0.002204,-0.008814,0.373236,0.383348,0.140146,-0.833126,4.513786,48.019233,-129.724371
46346,-7.162915,1.943404,6.532271,1.029482,-1.059823,-0.036648,0.362573,-0.453578,-1.586275,-0.071621,0.019884,0.065196,0.999964,0.001813,-0.002268,-0.007931,0.366293,0.380988,0.140834,-0.837164,3.697845,47.822760,-131.097417
46347,-7.060598,1.354758,6.573185,0.614536,-0.771131,-0.121388,0.299687,-0.377486,-1.444643,-0.070630,0.013959,0.065619,0.999971,0.001498,-0.001887,-0.007223,0.359983,0.378902,0.141655,-0.840702,2.945724,47.652524,-132.338342
46348,-7.259560,0.773631,6.844641,0.217758,-0.440913,0.182636,0.329762,-0.357315,-1.315462,-0.072665,0.008101,0.068330,0.999975,0.001649,-0.001787,-0.006577,0.354129,0.377030,0.142124,-0.843944,2.301797,47.480317,-133.460608
46349,-7.389670,-0.005836,7.061490,-0.315951,0.039406,0.403480,0.405286,-0.358596,-1.259968,-0.074022,0.000265,0.070483,0.999976,0.002026,-0.001793,-0.006300,0.348348,0.375304,0.142170,-0.847106,1.741275,47.298227,-134.530425
46350,-7.875324,-0.283282,7.670711,-0.527946,0.155929,1.170808,0.517288,-0.496526,-1.260632,-0.078960,-0.002534,0.076504,0.999974,0.002586,-0.002483,-0.006303,0.342437,0.373174,0.141487,-0.850564,1.251815,47.030599,-135.595844
46351,-7.795307,-0.446268,7.855160,-0.689217,0.150366,1.240417,0.591929,-0.657140,-1.292354,-0.078238,-0.004190,0.078282,0.999969,0.002960,-0.003286,-0.006462,0.336345,0.370441,0.140270,-0.854383,0.793414,46.665153,-136.681640
46352,-8.019551,-0.465122,8.169389,-0.655860,0.139836,1.624865,0.666122,-0.860086,-1.321104,-0.080575,-0.004391,0.081333,0.999963,0.003331,-0.004300,-0.006605,0.330114,0.366926,0.138432,-0.858619,0.375196,46.178077,-137.779479
46353,-8.099937,-0.712868,8.101340,-0.622978,0.443781,1.639914,0.837291,-1.130052,-1.275160,-0.081500,-0.006948,0.080525,0.999955,0.004186,-0.005650,-0.006376,0.323925,0.362530,0.135326,-0.863326,0.098550,45.531396,-138.825914
46354,-7.718687,-0.339264,7.702771,-0.240014,0.255648,1.091484,1.111489,-1.364583,-1.149757,-0.077729,-0.003373,0.076480,0.999945,0.005557,-0.006823,-0.005749,0.317908,0.357621,0.130407,-0.868352,0.072841,44.748552,-139.754176
46355,-7.202481,0.706473,7.446346,0.403992,-0.564905,0.547761,1.180764,-1.477497,-1.068793,-0.072535,0.007014,0.073970,0.999941,0.005904,-0.007387,-0.005344,0.312155,0.352338,0.124857,-0.873400,0.148487,43.900926,-140.606217
46356,-7.058761,1.154656,7.429003,0.721965,-0.875494,0.437194,0.997984,-1.519334,-1.019782,-0.071091,0.011539,0.073809,0.999946,0.004990,-0.007597,-0.005099,0.306930,0.346583,0.119931,-0.878231,0.164558,43.030027,-141.407432
46357,-6.926885,0.802637,7.021455,0.757995,-0.400657,0.045811,0.854597,-1.561327,-0.949247,-0.069776,0.008058,0.069706,0.999949,0.004273,-0.007807,-0.004746,0.302256,0.340425,0.115443,-0.882851,0.150870,42.134652,-142.143231
46358,-6.743060,0.947151,7.055309,0.836458,-0.529107,-0.057582,0.788963,-1.554023,-0.887913,-0.067934,0.009495,0.070064,0.999952,0.003945,-0.007770,-0.004439,0.297931,0.334207,0.111132,-0.887239,0.147782,41.243611,-142.820689
46359,-6.598363,0.831023,6.842073,0.908517,-0.339125,-0.320537,0.634186,-1.557451,-0.819216,-0.066480,0.008366,0.067931,0.999956,0.003171,-0.007787,-0.004096,0.294144,0.327746,0.107385,-0.891364,0.102995,40.350013,-143.437138
46360,-6.041801,0.784681,6.544269,0.808460,-0.375331,-0.916011,0.477985,-1.418640,-0.845274,-0.060847,0.007948,0.065031,0.999963,0.002390,-0.007093,-0.004226,0.290399,0.321638,0.104565,-0.895144,-0.029380,39.535534,-144.062781
46361,-6.186108,0.079916,6.609198,0.562255,0.283887,-0.781747,0.344965,-1.293364,-0.903546,-0.062283,0.000966,0.065692,0.999967,0.001725,-0.006467,-0.004518,0.286521,0.315841,0.102616,-0.898677,-0.253340,38.791008,-144.721999
46362,-6.337314,-0.570386,6.958199,0.220089,0.794915,-0.420042,0.351898,-1.218760,-0.947360,-0.063822,-0.005524,0.069184,0.999969,0.001759,-0.006094,-0.004737,0.282380,0.310351,0.100798,-0.902100,-0.479446,38.087320,-145.402674
46363,-5.998435,-0.670550,6.811697,0.129130,0.818895,-0.749480,0.472919,-1.141160,-0.961854,-0.060403,-0.006576,0.067757,0.999969,0.002365,-0.005706,-0.004809,0.277927,0.305352,0.098567,-0.905429,-0.631994,37.426060,-146.085659
46364,-6.164835,-0.066663,7.229940,0.471191,0.289355,-0.327171,0.545852,-1.063246,-0.960273,-0.062034,-0.000566,0.071969,0.999971,0.002729,-0.005316,-0.004801,0.273317,0.300792,0.096099,-0.908618,-0.730743,36.808462,-146.760016
46365,-6.360059,0.114971,7.935704,0.455085,0.024489,0.347539,0.440849,-1.097596,-0.955826,-0.064029,0.001281,0.079009,0.999971,0.002204,-0.005488,-0.004779,0.268885,0.295915,0.094056,-0.911750,-0.878486,36.169923,-147.424227
46366,-6.120195,-0.210600,8.214948,0.089144,0.141463,0.432179,0.358642,-1.155675,-0.931467,-0.061685,-0.001966,0.081790,0.999971,0.001793,-0.005778,-0.004657,0.264698,0.290660,0.092261,-0.914844,-1.051093,35.497000,-148.062273
46367,-5.654231,-0.375357,8.041767,-0.125539,0.182283,0.022508,0.423310,-1.168609,-0.848477,-0.057027,-0.003682,0.080078,0.999972,0.002117,-0.005843,-0.004242,0.260786,0.285451,0.090034,-0.917825,-1.143807,34.816257,-148.635230
46368,-5.457568,-0.332571,8.061939,-0.149312,0.115042,-0.073392,0.584007,-1.152493,-0.719795,-0.055051,-0.003363,0.080293,0.999973,0.002920,-0.005762,-0.003599,0.257215,0.280569,0.086896,-0.920636,-1.084559,34.146173,-149.113569
46369,-5.325641,0.112721,8.047354,0.083128,-0.244226,-0.165538,0.709948,-1.119716,-0.603051,-0.053703,0.001004,0.080177,0.999973,0.003550,-0.005599,-0.003015,0.253976,0.276034,0.083058,-0.923257,-0.903936,33.496709,-149.510238
46370,-5.607154,0.470670,8.502061,0.336573,-0.489090,0.365389,0.659117,-1.090256,-0.564278,-0.056521,0.004586,0.084729,0.999976,0.003296,-0.005451,-0.002821,0.250962,0.271574,0.079428,-0.925719,-0.733014,32.865600,-149.879639
46371,-5.902408,0.040833,8.741295,0.313289,0.009307,0.730123,0.492024,-1.158329,-0.614563,-0.059528,0.000376,0.087070,0.999975,0.002460,-0.005792,-0.003073,0.247956,0.266554,0.076556,-0.928227,-0.672720,32.195602,-150.281868
46372,-5.440512,-0.456346,8.615318,-0.107962,0.339404,0.380591,0.311363,-1.208378,-0.754293,-0.054941,-0.004491,0.085815,0.999973,0.001557,-0.006042,-0.003771,0.244550,0.261014,0.074637,-0.930858,-0.758711,31.496012,-150.774311
46373,-4.753810,-1.146429,7.980403,-0.556231,0.865446,-0.509990,0.217974,-1.187153,-0.949299,-0.048065,-0.011324,0.079507,0.999971,0.001090,-0.005936,-0.004746,0.240336,0.255368,0.073436,-0.933613,-0.958793,30.805711,-151.392212
46374,-4.801997,-1.433767,8.201609,-0.638616,1.108174,-0.286714,0.237651,-1.039471,-1.151409,-0.048527,-0.014157,0.081748,0.999969,0.001188,-0.005197,-0.005757,0.235085,0.250349,0.072567,-0.936373,-1.206048,30.195914,-152.138651
46375,-4.856449,-1.718501,7.809373,-0.445122,1.506756,-0.590160,0.416549,-1.025780,-1.239539,-0.049070,-0.017044,0.077807,0.999965,0.002083,-0.005129,-0.006198,0.229177,0.245552,0.070990,-0.939224,-1.370657,29.590335,-152.936832
46376,-5.378905,-0.273451,8.963463,0.247916,0.179435,0.639893,0.527539,-0.977504,-1.339203,-0.054244,-0.002608,0.089363,0.999962,0.002638,-0.004887,-0.006696,0.222632,0.241060,0.069056,-0.942102,-1.492644,29.009431,-153.794412
46377,-5.699037,-0.102614,9.265261,0.568829,0.100172,1.050070,0.324053,-1.153457,-1.331993,-0.057529,-0.000794,0.092320,0.999960,0.001620,-0.005767,-0.006660,0.216409,0.235492,0.067880,-0.945041,-1.716894,28.325439,-154.637290
46378,-4.610963,-0.002131,8.899192,0.027923,-0.292332,0.205748,0.365194,-1.229642,-1.234841,-0.046655,0.000103,0.088706,0.999960,0.001826,-0.006148,-0.006174,0.210606,0.229627,0.066298,-0.947904,-1.873126,27.597284,-155.407025
46379,-4.439795,0.574675,9.077928,0.181979,-0.880434,0.269047,0.398848,-1.227525,-1.070774,-0.044923,0.005806,0.090516,0.999965,0.001994,-0.006138,-0.005354,0.205524,0.223841,0.064375,-0.950532,-1.951158,26.871923,-156.064787
46380,-4.001993,0.895622,9.013244,0.091999,-1.272084,0.007136,0.405993,-1.221959,-0.846178,-0.040532,0.008944,0.089904,0.999970,0.002030,-0.006110,-0.004231,0.201488,0.218150,0.062159,-0.952864,-1.950327,26.153910,-156.573809
46381,-4.040797,1.373357,9.253682,0.323911,-1.691758,0.231059,0.407900,-1.162852,-0.637748,-0.040902,0.013675,0.092328,0.999976,0.002039,-0.005814,-0.003189,0.198413,0.212793,0.059770,-0.954871,-1.885510,25.473777,-156.949238
46382,-4.580606,1.061023,9.735595,0.564208,-1.257944,0.910537,0.257101,-1.193352,-0.476498,-0.046361,0.010595,0.097094,0.999979,0.001285,-0.005967,-0.002382,0.196270,0.207182,0.057890,-0.956662,-1.857815,24.779696,-157.220198
46383,-4.412040,-0.024884,9.536336,0.178279,-0.222854,0.690904,0.323227,-1.284932,-0.286901,-0.044732,-0.000339,0.095077,0.999977,0.001616,-0.006425,-0.001434,0.194982,0.201240,0.055409,-0.958339,-1.739639,24.036639,-157.369737
46384,-4.523714,-0.112402,9.718212,0.285916,-0.050441,0.903378,0.591204,-1.327210,-0.152700,-0.045882,-0.001376,0.096875,0.999973,0.002956,-0.006636,-0.000763,0.194070,0.195388,0.051460,-0.959954,-1.432265,23.272261,-157.436555
46385,-4.900681,0.255790,10.239892,0.685531,-0.238007,1.519055,0.604664,-1.453527,-0.113309,-0.049748,0.002277,0.102046,0.999969,0.003023,-0.007268,-0.000567,0.193355,0.188938,0.047288,-0.961603,-1.108468,22.436142,-157.481499
46386,-4.336354,-0.432649,9.914420,0.183313,0.366336,1.009339,0.568028,-1.617158,-0.062315,-0.044165,-0.004594,0.098776,0.999963,0.002840,-0.008086,-0.000312,0.192945,0.181668,0.043077,-0.963282,-0.793667,21.507244,-157.497817
46387,-3.903666,-0.266486,9.711330,0.080632,0.217652,0.654530,0.775261,-1.664115,0.018782,-0.039843,-0.003044,0.096773,0.999958,0.003876,-0.008320,0.000094,0.192733,0.174373,0.037751,-0.964895,-0.344941,20.551850,-157.470761
46388,-4.084768,0.351748,10.010925,0.515996,-0.187158,0.991150,0.788475,-1.741392,0.089065,-0.041719,0.003105,0.099761,0.999954,0.003942,-0.008707,0.000445,0.192846,0.166718,0.032217,-0.966425,0.123489,19.552262,-157.408894
46389,-3.550402,0.364022,9.584289,0.330709,-0.192466,0.407226,0.743267,-1.831763,0.180876,-0.036383,0.003252,0.095525,0.999951,0.003716,-0.009159,0.000904,0.193437,0.158579,0.026740,-0.967843,0.579432,18.499998,-157.300785
46390,-3.424179,0.343879,9.713828,0.317423,-0.089375,0.487286,0.751721,-1.828684,0.261878,-0.035132,0.003029,0.096832,0.999950,0.003759,-0.009143,0.001309,0.194393,0.150461,0.021153,-0.969085,1.051092,17.448183,-157.153344
46391,-3.976017,-0.163762,10.120612,0.642294,0.699744,1.020402,0.784692,-1.909948,0.362066,-0.040721,-0.002107,0.100813,0.999945,0.003923,-0.009550,0.001810,0.195798,0.141974,0.015254,-0.970193,1.552529,16.347258,-156.957350
46392,-3.394139,0.114166,9.999127,0.425743,0.410518,0.730603,0.953357,-2.071211,0.448480,-0.034976,0.000588,0.099636,0.999933,0.004767,-0.010356,0.002242,0.197491,0.132861,0.008311,-0.971224,2.157257,15.150726,-156.725136
46393,-2.780348,0.872685,9.885329,0.363219,-0.328028,0.481340,0.988432,-2.125102,0.524005,-0.028874,0.008164,0.098592,0.999928,0.004942,-0.010625,0.002620,0.199502,0.123505,0.001099,-0.972082,2.783877,13.919145,-156.464363
46394,-2.184103,1.253277,9.681509,0.190284,-0.716446,0.163201,0.896946,-2.147563,0.563467,-0.022914,0.012036,0.096628,0.999928,0.004485,-0.010738,0.002817,0.201733,0.113932,-0.005721,-0.972775,3.355056,12.670932,-156.195632
46395,-1.616404,1.155999,9.588811,-0.174076,-0.679065,-0.045460,0.785006,-2.083762,0.610579,-0.017197,0.011133,0.095757,0.999933,0.003925,-0.010419,0.003053,0.204231,0.104538,-0.011953,-0.973252,3.859366,11.455111,-155.910355
46396,-2.656946,0.232452,10.093808,0.442687,0.743850,0.591368,0.862676,-2.029983,0.687774,-0.027599,0.001796,0.100670,0.999933,0.004313,-0.010150,0.003439,0.207039,0.095467,-0.018552,-0.973487,4.409380,10.264310,-155.590448
46397,-3.312503,0.356251,10.614547,1.142092,1.098903,1.198640,1.103026,-2.241344,0.738308,-0.034323,0.002853,0.105782,0.999915,0.005515,-0.011206,0.003691,0.209928,0.085596,-0.026557,-0.973601,5.090481,8.947155,-155.265746
46398,-2.089483,1.242484,10.088622,0.674685,0.004264,0.542395,1.138732,-2.447442,0.796187,-0.022176,0.011765,0.100688,0.999901,0.005693,-0.012237,0.003981,0.213018,0.074737,-0.034975,-0.973558,5.785564,7.505521,-154.936184
46399,-1.016913,1.440425,9.568829,0.056329,-0.429119,-0.092709,1.089460,-2.446542,0.871060,-0.011400,0.013835,0.095630,0.999901,0.005447,-0.012232,0.004355,0.216448,0.063803,-0.043169,-0.973250,6.446530,6.056249,-154.581941
46400,-2.220901,0.460385,9.791267,0.867903,1.198750,0.127955,1.224673,-2.392841,1.021128,-0.023400,0.003888,0.097663,0.999897,0.006123,-0.011964,0.005105,0.220533,0.053230,-0.052007,-0.972536,7.183248,4.622962,-154.156980
46401,-3.006480,1.466103,10.717339,2.057837,0.974050,1.180735,1.526065,-2.638498,1.102743,-0.031553,0.013674,0.106871,0.999869,0.007630,-0.013192,0.005513,0.224818,0.041763,-0.062586,-0.971491,8.081361,3.038342,-153.725754
46402,-1.560057,2.431832,10.254868,1.439720,-0.284672,0.739342,1.287599,-2.907638,1.138961,-0.017226,0.023563,0.102459,0.999857,0.006438,-0.014537,0.005695,0.229184,0.028697,-0.072304,-0.970270,8.829929,1.291851,-153.320157
46403,-0.018249,1.327037,8.965991,-0.092135,0.081835,-0.750250,1.085040,-2.958943,1.216059,-0.001588,0.012777,0.089714,0.999857,0.005425,-0.014794,0.006080,0.233868,0.015117,-0.081084,-0.968763,9.449551,-0.494891,-152.896788
46404,0.327632,0.585975,8.515861,-0.519400,0.723690,-1.317340,1.456073,-2.767113,1.360235,0.002060,0.005256,0.085232,0.999855,0.007280,-0.013835,0.006801,0.239234,0.002833,-0.091429,-0.966644,10.267570,-2.193163,-152.395535
46405,-1.140485,1.183166,9.719984,1.156641,1.356314,-0.117777,1.873957,-2.722917,1.530937,-0.012813,0.010827,0.097136,0.999834,0.009369,-0.013614,0.007654,0.245364,-0.008812,-0.103709,-0.963827,11.305707,-3.892250,-151.820341
46406,-1.078591,2.401614,9.869805,1.848046,0.638141,0.212694,2.040314,-2.977273,1.700551,-0.012454,0.022908,0.098758,0.999801,0.010201,-0.014885,0.008502,0.252097,-0.021567,-0.117064,-0.960353,12.418954,-5.764919,-151.210692
46407,1.258428,3.384125,9.158720,0.510580,-1.151324,-0.049512,1.792348,-3.069268,1.820746,0.010870,0.033122,0.092062,0.999801,0.008961,-0.015345,0.009103,0.259226,-0.035133,-0.129277,-0.956481,13.366525,-7.714206,-150.577193
46408,2.421465,2.126793,7.205026,-0.926269,-0.932647,-2.030335,1.589725,-2.861228,1.878557,0.022982,0.020912,0.072552,0.999822,0.007948,-0.014305,0.009392,0.266632,-0.047996,-0.140199,-0.952338,14.172646,-9.565770,-149.909912
46409,2.348435,2.358545,8.297360,-0.550264,-0.543252,-0.906577,1.736246,-2.593714,1.928358,0.022180,0.023080,0.083469,0.999832,0.008681,-0.012968,0.009641,0.274406,-0.059403,-0.151397,-0.947761,15.033909,-11.284937,-149.199169
46410,1.490524,1.502571,8.390678,-0.130886,0.844606,-1.201877,1.793466,-2.490446,2.000256,0.013712,0.014413,0.084214,0.999832,0.008967,-0.012452,0.010001,0.282523,-0.070282,-0.162657,-0.942753,15.900481,-12.969080,-148.454118
46411,2.967949,2.663387,7.779836,-0.589242,-0.799707,-1.127369,1.799511,-2.458875,1.944875,0.028462,0.026211,0.078390,0.999837,0.008997,-0.012294,0.009724,0.290313,-0.080930,-0.173861,-0.937518,16.760082,-14.637069,-147.756258
46412,4.979007,2.561758,6.995696,-2.171047,-1.856531,-1.319873,1.342756,-2.136898,1.771214,0.048811,0.025580,0.070654,0.999881,0.006714,-0.010684,0.008856,0.297303,-0.090563,-0.182484,-0.932796,17.355714,-16.108636,-147.118053
46413,3.524337,1.287812,7.379221,-1.590127,0.165887,-1.690260,1.279524,-1.737134,1.571181,0.034500,0.012677,0.074176,0.999911,0.006397,-0.008685,0.007856,0.303634,-0.098222,-0.190265,-0.928417,17.915448,-17.332925,-146.532499
46414,3.176972,1.567302,8.016506,-1.004758,0.548556,-1.123564,1.219570,-1.648842,1.376285,0.031000,0.015398,0.080517,0.999924,0.006098,-0.008244,0.006881,0.309065,-0.105362,-0.197703,-0.924279,18.461509,-18.480048,-146.050615
46415,3.284256,1.196915,8.094012,-1.224213,0.941207,-1.132523,1.176827,-1.507907,1.204248,0.032160,0.011687,0.081254,0.999936,0.005884,-0.007539,0.006021,0.313774,-0.111732,-0.204784,-0.920394,18.999738,-19.523047,-145.648237
46416,2.544304,1.977862,8.261898,-0.075209,0.999054,-1.001444,1.284457,-1.494054,1.090507,0.024718,0.019383,0.082931,0.999937,0.006422,-0.007470,0.005452,0.317994,-0.117739,-0.212380,-0.916467,19.617808,-20.541072,-145.317395
46417,4.265373,3.068126,7.609382,-0.683076,-0.839492,-0.629240,1.046210,-1.435592,0.980528,0.041956,0.030488,0.076556,0.999949,0.005231,-0.007178,0.004903,0.321597,-0.123726,-0.218826,-0.912898,20.114708,-21.508866,-145.046008
46418,4.327179,2.742861,7.127703,-0.896512,-0.746836,-1.112755,0.914843,-1.213146,0.899712,0.042715,0.027294,0.071662,0.999961,0.004574,-0.006066,0.004499,0.324962,-0.128810,-0.224351,-0.909656,20.535255,-22.343348,-144.780698
46419,4.815520,3.415317,7.195508,-0.749405,-1.327638,-0.631001,0.798895,-1.014468,0.821238,0.047649,0.034061,0.072334,0.999971,0.003994,-0.005072,0.004106,0.328098,-0.133082,-0.229055,-0.906739,20.887880,-23.056950,-144.521635
46420,4.791486,3.108901,7.349283,-0.851512,-0.939334,-0.591661,0.584574,-0.785845,0.740554,0.047510,0.031050,0.073771,0.999981,0.002923,-0.003929,0.003703,0.330969,-0.136570,-0.232461,-0.904306,21.115169,-23.633039,-144.261477
46421,4.202532,2.856948,7.710921,-0.491446,-0.197396,-0.593108,0.554203,-0.662801,0.696326,0.041670,0.028501,0.077327,0.999985,0.002771,-0.003314,0.003482,0.333754,-0.139498,-0.235543,-0.902036,21.321864,-24.135170,-144.000234
46422,4.964697,3.346970,7.459196,-0.701448,-1.000006,-0.325986,0.460832,-0.551150,0.645323,0.049333,0.033457,0.074805,0.999988,0.002304,-0.002756,0.003227,0.336364,-0.142012,-0.238052,-0.900013,21.475835,-24.567793,-143.744347
46423,5.106384,3.112650,7.250146,-0.937861,-0.984789,-0.513293,0.353377,-0.357220,0.610554,0.050839,0.031154,0.072647,0.999992,0.001767,-0.001786,0.003053,0.338967,-0.143793,-0.239767,-0.898297,21.555928,-24.890358,-143.463860
46424,5.094451,3.337890,7.290950,-0.736667,-1.073694,-0.402201,0.371544,-0.175388,0.634022,0.050775,0.033404,0.073016,0.999993,0.001858,-0.000877,0.003170,0.341900,-0.144749,-0.241239,-0.896636,21.622044,-25.121178,-143.127445
46425,4.595242,3.646582,7.763915,-0.090509,-0.730224,-0.109559,0.331510,-0.019836,0.703750,0.045816,0.036498,0.077704,0.999992,0.001658,-0.000099,0.003519,0.345301,-0.145163,-0.242209,-0.895003,21.630497,-25.284388,-142.712970
46426,4.738432,3.551377,7.559683,-0.249351,-0.844677,-0.250360,0.272732,0.047682,0.786346,0.047263,0.035597,0.075634,0.999991,0.001364,0.000238,0.003932,0.349103,-0.145469,-0.242738,-0.893333,21.576992,-25.428589,-142.233782
46427,5.301274,3.758841,7.245136,-0.503931,-1.459105,-0.203246,0.236196,0.219610,0.859502,0.052930,0.037730,0.072438,0.999989,0.001181,0.001098,0.004297,0.353409,-0.145162,-0.242743,-0.891687,21.465192,-25.496298,-141.670426
46428,5.223477,3.439987,7.177223,-0.648746,-1.268191,-0.399852,0.258089,0.405187,0.983004,0.052210,0.034564,0.071711,0.999985,0.001290,0.002026,0.004915,0.358495,-0.144130,-0.242424,-0.889909,21.316130,-25.489257,-140.991106
46429,5.259205,4.693044,7.333549,0.255754,-2.012845,0.154648,0.370450,0.607065,1.179159,0.052537,0.047105,0.073263,0.999976,0.001852,0.003035,0.005896,0.364768,-0.142237,-0.242092,-0.887752,21.161790,-25.414066,-140.149358
46430,5.611507,4.623186,7.119978,-0.014549,-2.326068,0.094164,0.191394,0.783654,1.352149,0.056080,0.046543,0.071024,0.999969,0.000957,0.003918,0.006761,0.371874,-0.140082,-0.240508,-0.885575,20.846135,-25.276255,-139.166452
46431,5.613732,4.391659,7.110972,-0.139261,-2.252039,-0.000706,0.298879,1.048329,1.560536,0.056165,0.044249,0.070881,0.999955,0.001494,0.005242,0.007803,0.380268,-0.136802,-0.238744,-0.882997,20.518261,-25.034497,-138.003232
46432,4.619884,5.061713,8.098291,1.122950,-1.598343,0.614698,0.207908,1.209543,1.710411,0.046253,0.050929,0.080756,0.999945,0.001040,0.006048,0.008552,0.389415,-0.133141,-0.236144,-0.880265,20.093078,-24.728243,-136.720417
46433,4.592244,3.320010,8.122001,-0.125260,-0.635822,0.069473,-0.057453,1.217137,1.721191,0.046127,0.033620,0.080930,0.999944,-0.000287,0.006086,0.008606,0.398398,-0.129969,-0.232331,-0.877730,19.521515,-24.410757,-135.435761
46434,4.719005,2.295664,8.060673,-0.966431,-0.270973,-0.246865,0.027422,1.315362,1.588120,0.047535,0.023322,0.080298,0.999947,0.000137,0.006577,0.007940,0.406922,-0.126021,-0.228753,-0.875331,19.032763,-24.003298,-134.216626
46435,3.789351,1.892530,9.022552,-0.656461,0.929742,0.089367,-0.034189,1.359707,1.348978,0.038377,0.019198,0.089962,0.999954,-0.000171,0.006798,0.006745,0.414373,-0.121726,-0.224946,-0.873429,18.574100,-23.519427,-133.138148
46436,2.550146,1.459867,9.789080,-0.229002,2.267965,0.150415,0.055863,1.232940,1.150533,0.026020,0.014720,0.097736,0.999964,0.000279,0.006165,0.005753,0.420834,-0.117557,-0.221894,-0.871689,18.234445,-23.060733,-132.209700
46437,3.128161,2.306364,9.674180,0.044462,1.264035,0.535939,-0.006416,0.999023,1.000290,0.031648,0.023224,0.096584,0.999975,-0.000032,0.004995,0.005001,0.426320,-0.114372,-0.219139,-0.870143,17.919297,-22.698728,-131.420737
46438,4.499811,1.887483,8.410570,-1.150503,-0.151647,-0.158610,-0.104334,0.969930,0.845850,0.045325,0.019110,0.083876,0.999979,-0.000522,0.004850,0.004229,0.431025,-0.111340,-0.216097,-0.868978,17.591665,-22.320693,-130.733007
46439,4.212482,2.385292,8.618944,-0.587806,-0.212855,0.052869,-0.098353,1.078921,0.658075,0.042510,0.024035,0.085949,0.999980,-0.000492,0.005395,0.003290,0.435019,-0.107622,-0.212941,-0.868235,17.307470,-21.848270,-130.139881
46440,4.549462,2.193789,8.349093,-0.956610,-0.579079,-0.119071,-0.327570,1.109821,0.445697,0.045908,0.022176,0.083201,0.999981,-0.001638,0.005549,0.002228,0.437982,-0.104031,-0.208829,-0.868182,16.942888,-21.319161,-129.671398
46441,4.209971,1.495693,8.651479,-1.338068,0.055585,-0.168299,-0.243982,1.269678,0.318850,0.042624,0.015130,0.086227,0.999978,-0.001220,0.006348,0.001594,0.440588,-0.099435,-0.204788,-0.868364,16.648601,-20.679813,-129.253962
46442,1.378067,2.801190,10.351568,1.322090,2.072044,0.716240,0.188761,1.183436,0.345121,0.014345,0.027939,0.103458,0.999981,0.000944,0.005917,0.001726,0.443415,-0.094274,-0.202793,-0.867969,16.608059,-20.090042,-128.840165
46443,2.786256,3.997868,10.072937,1.418606,0.213868,1.284677,-0.204426,0.804178,0.331571,0.028201,0.040128,0.100575,0.999990,-0.001022,0.004021,0.001658,0.445603,-0.091622,-0.199933,-0.867796,16.370966,-19.706305,-128.502393
46444,3.704484,1.987817,8.795635,-0.734509,-0.040168,-0.091777,-0.296363,0.818790,0.248399,0.037380,0.020055,0.087774,0.999990,-0.001482,0.004094,0.001242,0.447391,-0.089018,-0.196676,-0.867892,16.100194,-19.298992,-128.213614
46445,1.298415,2.690770,10.946822,1.171824,2.208498,1.255642,-0.041511,0.742186,0.200447,0.013363,0.026944,0.109414,0.999993,-0.000208,0.003711,0.001002,0.449003,-0.086136,-0.194713,-0.867793,15.990829,-18.926128,-127.967469
46446,2.147551,2.039096,9.960690,0.153276,1.455860,0.475272,-0.113196,0.334716,0.217183,0.021620,0.020471,0.099559,0.999998,-0.000566,0.001674,0.001086,0.450254,-0.085190,-0.193345,-0.867544,15.861079,-18.779152,-127.780749
46447,3.860438,2.485314,8.890379,-0.453982,-0.530591,0.168840,-0.016908,0.338816,0.143996,0.038737,0.024889,0.088836,0.999998,-0.000085,0.001694,0.000720,0.451232,-0.083945,-0.192414,-0.867364,15.799936,-18.618666,-127.636079
46448,3.535190,2.451693,8.862620,-0.301747,-0.315146,0.029257,-0.092945,0.429142,0.069558,0.035533,0.024570,0.088539,0.999998,-0.000465,0.002146,0.000348,0.451939,-0.082401,-0.190983,-0.867460,15.705458,-18.396122,-127.520566
46449,2.527840,2.218656,9.555297,0.057987,0.804462,0.285106,-0.094721,0.429274,0.043936,0.025479,0.022237,0.095488,0.999998,-0.000474,0.002146,0.000220,0.452534,-0.080843,-0.189550,-0.867611,15.614603,-18.169931,-127.420153
46450,2.103399,2.036433,9.784064,0.133994,1.279413,0.318667,0.006075,0.283130,0.071583,0.021165,0.020369,0.097811,0.999999,0.000030,0.001416,0.000358,0.453147,-0.079710,-0.188877,-0.867542,15.584908,-18.027985,-127.328030
46451,2.572060,2.143654,9.595520,-0.056347,0.778663,0.320191,0.116902,0.180897,0.094886,0.025797,0.021393,0.095944,0.999999,0.000585,0.000904,0.000474,0.453811,-0.078797,-0.188902,-0.867273,15.619135,-17.946479,-127.238681
46452,2.340372,2.500255,9.791186,0.348096,0.843878,0.519913,0.126330,0.097026,0.071475,0.023442,0.024949,0.097916,1.000000,0.000632,0.000485,0.000357,0.454295,-0.078198,-0.189171,-0.867015,15.667917,-17.907263,-127.176816
46453,2.747892,2.034702,9.582664,-0.265938,0.692768,0.334614,0.037779,-0.001845,0.001370,0.027478,0.020329,0.095831,1.000000,0.000189,-0.000009,0.000007,0.454348,-0.078168,-0.189304,-0.866961,15.682661,-17.912086,-127.171323
46454,2.885040,1.544134,9.415802,-0.743602,0.779757,0.097113,0.075477,-0.036148,-0.101558,0.028841,0.015391,0.094169,1.000000,0.000377,-0.000181,-0.000508,0.453936,-0.078099,-0.189723,-0.867092,15.739838,-17.919547,-127.231429
46455,2.846236,1.612021,9.468093,-0.676239,0.805592,0.149147,0.127219,-0.079103,-0.202145,0.028441,0.016031,0.094702,0.999999,0.000636,-0.000396,-0.001011,0.453069,-0.078007,-0.190497,-0.867384,15.845896,-17.935198,-127.356484
46456,3.140948,2.039216,9.286520,-0.504263,0.304429,0.183132,0.151341,-0.099353,-0.262898,0.031390,0.020281,0.092896,0.999999,0.000757,-0.000497,-0.001314,0.451925,-0.077886,-0.191450,-0.867781,15.978583,-17.951939,-127.520506
46457,2.970385,2.425971,9.277513,-0.105159,0.245078,0.222730,0.141431,-0.099370,-0.280149,0.029692,0.024152,0.092807,0.999999,0.000707,-0.000497,-0.001401,0.450705,-0.077776,-0.192361,-0.868224,16.107717,-17.965869,-127.694128
46458,3.101036,2.639006,9.125639,-0.014920,-0.010717,0.180196,0.093309,-0.118285,-0.259359,0.030991,0.026307,0.091287,0.999999,0.000467,-0.000591,-0.001297,0.449534,-0.077871,-0.193103,-0.868658,16.207632,-17.992925,-127.859383
46459,3.203202,2.569897,9.106232,-0.139907,-0.047207,0.175631,0.080857,-0.078901,-0.228788,0.032025,0.025626,0.091085,0.999999,0.000404,-0.000395,-0.001144,0.448530,-0.077858,-0.193683,-0.869049,16.291942,-18.003229,-127.999932
46460,2.402677,2.632029,9.561254,0.352146,0.718010,0.359748,0.134885,-0.100857,-0.141672,0.023997,0.026239,0.095642,0.999999,0.000674,-0.000504,-0.000708,0.447902,-0.077898,-0.194520,-0.869182,16.393869,-18.039168,-128.094320
46461,3.164371,2.941549,9.056064,0.169604,-0.201704,0.217704,0.146782,-0.161664,-0.035010,0.031576,0.029343,0.090608,0.999999,0.000734,-0.000808,-0.000175,0.447685,-0.078284,-0.195496,-0.869040,16.485775,-18.125883,-128.137062
46462,3.449574,2.947034,8.703976,0.018153,-0.545495,-0.012388,0.104294,-0.073089,0.024267,0.034460,0.029429,0.087068,1.000000,0.000521,-0.000365,0.000121,0.447792,-0.078433,-0.196073,-0.868841,16.539069,-18.173325,-128.130944
46463,3.046460,2.790353,8.946958,0.117010,-0.054256,0.041165,0.071752,-0.009123,0.054682,0.030453,0.027880,0.089481,1.000000,0.000359,-0.000046,0.000273,0.448085,-0.078413,-0.196347,-0.868631,16.563816,-18.190856,-128.095852
46464,3.106915,2.516520,8.947889,-0.140194,0.046460,-0.013265,0.030745,0.016143,0.078090,0.031067,0.025164,0.089480,1.000000,0.000154,0.000081,0.000390,0.448484,-0.078392,-0.196383,-0.868418,16.560472,-18.198089,-128.043320
46465,2.844130,2.429290,9.190356,-0.066635,0.388040,0.101855,0.046059,0.044235,0.089148,0.028451,0.024284,0.091903,1.000000,0.000230,0.000221,0.000446,0.448968,-0.078230,-0.196412,-0.868176,16.561407,-18.191950,-127.979132
46466,2.744569,2.410968,9.371283,-0.030704,0.546446,0.230560,0.030462,0.017100,0.091450,0.027443,0.024108,0.093714,1.000000,0.000152,0.000085,0.000457,0.449426,-0.078219,-0.196440,-0.867934,16.555435,-18.200836,-127.918711
46467,2.963556,2.220224,9.172542,-0.302918,0.401275,0.066321,0.029912,-0.016657,0.085175,0.029618,0.022201,0.091731,1.000000,0.000150,-0.000083,0.000426,0.449826,-0.078354,-0.196537,-0.867692,16.551036,-18.227428,-127.867260
46468,3.230971,2.300984,9.035322,-0.385743,0.104561,0.046877,0.029174,0.003369,0.056902,0.032305,0.023006,0.090356,1.000000,0.000146,0.000017,0.000285,0.450121,-0.078371,-0.196603,-0.867523,16.551274,-18.238209,-127.829163
46469,3.206467,2.210592,8.901063,-0.438379,0.113629,-0.107432,-0.002802,0.029776,0.019183,0.032076,0.022110,0.089006,1.000000,-0.000014,0.000149,0.000096,0.450268,-0.078314,-0.196479,-0.867480,16.537491,-18.228524,-127.807859
46470,3.251123,2.235724,8.925629,-0.445986,0.072903,-0.064308,-0.007372,0.066813,-0.020849,0.032543,0.022357,0.089245,1.000000,-0.000037,0.000334,-0.000104,0.450272,-0.078062,-0.196274,-0.867547,16.527451,-18.191769,-127.803832
46471,3.057332,2.206011,9.020898,-0.364007,0.265690,-0.046047,-0.025110,0.083020,-0.056488,0.030617,0.022063,0.090194,1.000000,-0.000126,0.000415,-0.000282,0.450135,-0.077750,-0.195962,-0.867717,16.511644,-18.140529,-127.817132
46472,2.745325,2.160783,9.280334,-0.234115,0.622718,0.081139,-0.000042,0.066972,-0.086082,0.027494,0.021596,0.092794,1.000000,-0.000000,0.000335,-0.000430,0.449859,-0.077417,-0.195815,-0.867923,16.517530,-18.093061,-127.850795
46473,2.715377,2.447813,9.277413,0.009794,0.493260,0.146833,0.075630,0.022727,-0.057608,0.027171,0.024435,0.092780,1.000000,0.000378,0.000114,-0.000288,0.449697,-0.077139,-0.196075,-0.867973,16.562751,-18.074724,-127.875033
46474,3.021291,2.946151,9.008099,0.239165,-0.101005,0.131479,0.103246,-0.003388,-0.021501,0.030215,0.029412,0.090097,1.000000,0.000516,-0.000017,-0.000108,0.449673,-0.076942,-0.196509,-0.867905,16.619954,-18.076413,-127.883427
46475,3.224324,3.085361,8.762301,0.237972,-0.422079,0.008660,0.085951,0.029555,0.025788,0.032252,0.030820,0.087631,1.000000,0.000430,0.000148,0.000129,0.449882,-0.076692,-0.196767,-0.867760,16.655769,-18.067933,-127.858297
46476,3.230061,3.141029,8.686067,0.278188,-0.486100,-0.043684,0.068617,0.079213,0.072697,0.032324,0.031392,0.086859,1.000000,0.000343,0.000396,0.000363,0.450335,-0.076307,-0.196828,-0.867545,16.671851,-18.039750,-127.798036
46477,3.062039,3.187513,8.800702,0.405435,-0.341286,0.021326,0.033395,0.121327,0.114514,0.030656,0.031878,0.087994,1.000000,0.000167,0.000607,0.000573,0.450999,-0.075865,-0.196618,-0.867286,16.656914,-17.995513,-127.705876
46478,3.188567,2.861856,8.826411,0.065118,-0.267298,-0.005190,-0.014237,0.145660,0.124967,0.031932,0.028645,0.088239,1.000000,-0.000071,0.000728,0.000625,0.451711,-0.075430,-0.196150,-0.867060,16.612785,-17.939396,-127.604036
46479,3.144094,2.609301,8.867432,-0.117196,-0.100134,-0.050446,-0.006206,0.178194,0.120604,0.031504,0.026115,0.088645,0.999999,-0.000031,0.000891,0.000603,0.452442,-0.074836,-0.195638,-0.866846,16.571351,-17.864831,-127.498733
46480,2.928033,2.700077,9.145894,0.064578,0.116122,0.161955,0.027815,0.183964,0.118486,0.029348,0.027005,0.091436,0.999999,0.000139,0.000920,0.000592,0.453178,-0.074134,-0.195267,-0.866605,16.550737,-17.786495,-127.394217
46481,2.854894,2.892610,9.247003,0.254349,0.102885,0.284312,0.034986,0.142223,0.138925,0.028595,0.028930,0.092455,0.999999,0.000175,0.000711,0.000695,0.453967,-0.073620,-0.195008,-0.866294,16.531853,-17.734584,-127.284666
46482,3.245373,2.771670,8.979198,-0.058065,-0.248462,0.125899,0.014518,0.130430,0.148655,0.032492,0.027734,0.089773,1.000000,0.000073,0.000652,0.000743,0.454776,-0.073209,-0.194690,-0.865976,16.501348,-17.690492,-127.172037
46483,3.206960,2.728755,8.935942,-0.071090,-0.224428,0.062854,0.054354,0.165141,0.152373,0.032123,0.027288,0.089340,0.999999,0.000272,0.000826,0.000762,0.455652,-0.072565,-0.194457,-0.865623,16.490263,-17.628091,-127.050936
46484,2.936789,2.844112,9.202355,0.160119,0.019393,0.255630,0.033363,0.165195,0.142301,0.029424,0.028447,0.092004,0.999999,0.000167,0.000826,0.000712,0.456473,-0.071954,-0.194143,-0.865311,16.470119,-17.563797,-126.936145
46485,2.905217,2.611624,9.192487,-0.014220,0.146430,0.174356,0.001066,0.145775,0.119253,0.029104,0.026133,0.091904,1.000000,0.000005,0.000729,0.000596,0.457166,-0.071483,-0.193735,-0.865076,16.435554,-17.506581,-126.837569
46486,3.001790,2.462995,9.130757,-0.189854,0.112182,0.106948,-0.007551,0.130030,0.066362,0.030069,0.024643,0.091287,1.000000,-0.000038,0.000650,0.000332,0.457609,-0.071044,-0.193352,-0.864964,16.407172,-17.449201,-126.772647
46487,2.860234,2.397811,9.120037,-0.166239,0.238830,0.037228,0.027599,0.134246,0.024610,0.028661,0.023969,0.091184,1.000000,0.000138,0.000671,0.000123,0.457890,-0.070471,-0.193118,-0.864914,16.404919,-17.382919,-126.730652
46488,2.941551,2.750642,9.115325,0.068593,-0.011597,0.152404,0.060387,0.116843,0.001483,0.029469,0.027479,0.091144,1.000000,0.000302,0.000584,0.000007,0.458064,-0.069870,-0.193082,-0.864879,16.427422,-17.322276,-126.705376
46489,2.789362,2.900589,9.255251,0.261602,0.078765,0.275869,0.057779,0.108098,0.003904,0.027943,0.028980,0.092546,1.000000,0.000289,0.000540,0.000020,0.458241,-0.069321,-0.193045,-0.864837,16.447391,-17.267016,-126.679725
46490,2.980232,2.985755,9.164982,0.220384,-0.150339,0.273057,0.058274,0.072257,0.027888,0.029831,0.029835,0.091648,1.000000,0.000291,0.000361,0.000139,0.458484,-0.068944,-0.193093,-0.864728,16.466459,-17.235176,-126.646803
46491,3.254713,2.983131,8.973969,0.067111,-0.438348,0.178693,0.061843,0.090576,0.047535,0.032581,0.029811,0.089734,1.000000,0.000309,0.000453,0.000238,0.458834,-0.068502,-0.193099,-0.864576,16.482277,-17.196628,-126.599029
46492,3.141125,2.989488,9.088252,0.124503,-0.314397,0.251391,0.044433,0.118881,0.057040,0.031457,0.029884,0.090870,1.000000,0.000222,0.000594,0.000285,0.459243,-0.067983,-0.192969,-0.864429,16.486167,-17.143926,-126.541408
46493,3.093663,2.887023,9.079055,0.062591,-0.237213,0.201038,0.046049,0.127080,0.077474,0.030983,0.028861,0.090778,1.000000,0.000230,0.000635,0.000387,0.459751,-0.067450,-0.192814,-0.864235,16.486179,-17.090237,-126.470252
46494,2.983344,2.988261,9.132301,0.199779,-0.190119,0.244792,0.044453,0.140362,0.097476,0.029883,0.029877,0.091309,1.000000,0.000222,0.000702,0.000487,0.460356,-0.066876,-0.192621,-0.864001,16.482306,-17.032307,-126.385773
46495,2.926636,2.810449,9.192545,0.078430,-0.042581,0.235135,0.014158,0.137071,0.106217,0.029314,0.028114,0.091907,1.000000,0.000071,0.000685,0.000531,0.460987,-0.066400,-0.192295,-0.863774,16.458911,-16.977790,-126.296481
46496,2.853645,2.625025,9.268990,-0.040511,0.127861,0.233716,0.034972,0.124462,0.112580,0.028579,0.026250,0.092677,1.000000,0.000175,0.000622,0.000563,0.461637,-0.065932,-0.192092,-0.863507,16.448037,-16.931005,-126.206104
46497,2.813937,2.734625,9.322020,0.065332,0.117976,0.300585,0.047694,0.104239,0.114332,0.028172,0.027340,0.093212,1.000000,0.000238,0.000521,0.000572,0.462282,-0.065528,-0.191984,-0.863217,16.444278,-16.895800,-126.117789
46498,2.783500,2.644554,9.441925,-0.000940,0.228285,0.377473,0.009322,0.073438,0.098277,0.027857,0.026455,0.094410,1.000000,0.000047,0.000367,0.000491,0.462812,-0.065326,-0.191793,-0.862991,16.423723,-16.874707,-126.044319
46499,2.797447,2.380849,9.383565,-0.221471,0.322551,0.256690,0.017938,0.034545,0.081806,0.027981,0.023812,0.093833,1.000000,0.000090,0.000173,0.000409,0.463239,-0.065260,-0.191728,-0.862781,16.411821,-16.872467,-125.986514
46500,2.967115,2.428054,9.213869,-0.266490,0.100441,0.162957,0.029580,0.022009,0.057729,0.029674,0.024275,0.092139,1.000000,0.000148,0.000110,0.000289,0.463552,-0.065194,-0.191757,-0.862611,16.412176,-16.873049,-125.945046
46501,2.987068,2.410007,9.117499,-0.287426,0.055950,0.075374,0.042933,0.032911,0.033347,0.029882,0.024085,0.091175,1.000000,0.000215,0.000165,0.000167,0.463777,-0.065031,-0.191819,-0.862489,16.422706,-16.863854,-125.915329
46502,2.733129,2.594000,9.265461,-0.006463,0.218900,0.187294,0.056368,0.045113,0.020917,0.027349,0.025917,0.092656,1.000000,0.000282,0.000226,0.000105,0.463962,-0.064767,-0.191921,-0.862387,16.443417,-16.845787,-125.891091
46503,2.604350,2.617649,9.399976,0.074061,0.359147,0.279874,0.012936,0.011883,0.009032,0.026048,0.026172,0.094000,1.000000,0.000065,0.000059,0.000045,0.464052,-0.064741,-0.191910,-0.862343,16.441820,-16.844210,-125.878886
46504,2.834144,2.347193,9.117560,-0.259256,0.205266,0.013921,0.018684,-0.009847,-0.000641,0.028337,0.023463,0.091179,1.000000,0.000093,-0.000049,-0.000003,0.464079,-0.064781,-0.191984,-0.862309,16.447229,-16.852853,-125.876337
46505,2.894066,2.434021,9.032360,-0.216896,0.083430,-0.023428,0.035426,0.015431,-0.021186,0.028950,0.024321,0.090326,1.000000,0.000177,0.000077,-0.000106,0.464049,-0.064659,-0.192072,-0.862314,16.463335,-16.844396,-125.880867
46506,2.900119,2.367753,9.011881,-0.277023,0.102826,-0.058528,0.020747,0.034029,-0.042475,0.029022,0.023662,0.090116,1.000000,0.000104,0.000170,-0.000212,0.463938,-0.064465,-0.192066,-0.862390,16.474726,-16.822137,-125.894890
46507,2.836109,2.410336,9.115151,-0.217362,0.168890,0.029235,0.023631,0.055031,-0.057774,0.028393,0.024084,0.091147,1.000000,0.000118,0.000275,-0.000289,0.463785,-0.064164,-0.192022,-0.862504,16.488157,-16.785984,-125.913675
46508,2.789726,2.447218,9.162281,-0.170272,0.201474,0.069076,0.038011,0.062529,-0.052229,0.027932,0.024447,0.091619,1.000000,0.000190,0.000313,-0.000261,0.463665,-0.063798,-0.192029,-0.862594,16.509636,-16.746474,-125.928435
46509,2.701459,2.531103,9.295120,-0.067172,0.277388,0.188421,0.052986,0.056113,-0.023721,0.027044,0.025283,0.092950,1.000000,0.000265,0.000281,-0.000119,0.463670,-0.063457,-0.192098,-0.862602,16.534137,-16.715256,-125.927455
46510,2.711617,2.699576,9.269991,0.061882,0.175363,0.214212,0.058861,0.034275,0.006772,0.027131,0.026969,0.092703,1.000000,0.000294,0.000171,0.000034,0.463783,-0.063221,-0.192241,-0.862526,16.559194,-16.700880,-125.913155
46511,2.910604,2.644509,9.123087,-0.088340,-0.009254,0.121489,0.030553,0.029763,0.022702,0.029117,0.026434,0.091231,1.000000,0.000153,0.000149,0.000114,0.463955,-0.063090,-0.192259,-0.862439,16.564462,-16.691685,-125.890024
46512,2.883961,2.425912,9.078176,-0.252744,0.100449,0.012870,0.025007,0.050993,0.015631,0.028861,0.024250,0.090777,1.000000,0.000125,0.000255,0.000078,0.464113,-0.062869,-0.192214,-0.862381,16.567851,-16.669580,-125.867791
46513,2.768448,2.466603,9.163537,-0.164201,0.200627,0.069196,0.051900,0.061264,0.015141,0.027711,0.024644,0.091633,1.000000,0.000259,0.000306,0.000076,0.464289,-0.062546,-0.192254,-0.862301,16.585045,-16.641865,-125.843613
46514,2.645739,2.563240,9.229261,-0.024421,0.270704,0.120868,0.015187,0.055444,-0.001076,0.026483,0.025625,0.092287,1.000000,0.000076,0.000277,-0.000005,0.464376,-0.062312,-0.192161,-0.862291,16.585349,-16.614590,-125.830194
46515,2.750479,2.394299,9.161456,-0.220515,0.242639,0.042391,0.014561,0.053881,-0.011632,0.027531,0.023935,0.091609,1.000000,0.000073,0.000269,-0.000058,0.464418,-0.062081,-0.192065,-0.862307,16.585884,-16.586531,-125.822610
46516,2.621801,2.526812,9.274058,-0.050420,0.316954,0.145413,0.013555,0.054515,-0.025322,0.026246,0.025259,0.092735,1.000000,0.000068,0.000273,-0.000127,0.464398,-0.061832,-0.191976,-0.862355,16.589274,-16.555801,-125.823243
46517,2.662526,2.448667,9.215880,-0.135999,0.297010,0.082298,-0.011817,0.042562,-0.044578,0.026650,0.024486,0.092152,1.000000,-0.000059,0.000213,-0.000223,0.464279,-0.061680,-0.191801,-0.862469,16.580584,-16.528544,-125.836450
46518,2.785867,2.409071,9.149778,-0.235270,0.190858,0.045880,-0.005724,0.040054,-0.059192,0.027884,0.024085,0.091492,1.000000,-0.000029,0.000200,-0.000296,0.464094,-0.061506,-0.191673,-0.862610,16.579144,-16.500218,-125.858953
46519,2.907798,2.498412,9.174197,-0.235393,0.057200,0.127361,0.009199,0.047864,-0.075081,0.029109,0.024969,0.091736,1.000000,0.000046,0.000239,-0.000375,0.463855,-0.061252,-0.191586,-0.862776,16.587136,-16.465048,-125.888705
46520,2.843622,2.536784,9.204362,-0.175144,0.095446,0.147330,0.011376,0.056177,-0.084481,0.028473,0.025351,0.092037,1.000000,0.000057,0.000281,-0.000422,0.463581,-0.060945,-0.191501,-0.862963,16.598783,-16.423726,-125.922921
46521,2.760890,2.587812,9.184304,-0.091075,0.122002,0.119460,0.020895,0.059419,-0.083313,0.027647,0.025857,0.091838,1.000000,0.000104,0.000297,-0.000417,0.463321,-0.060607,-0.191440,-0.863140,16.614173,-16.380863,-125.955376
46522,2.714462,2.747584,9.248598,0.055703,0.099324,0.209345,0.014329,0.047376,-0.091434,0.027179,0.027457,0.092482,1.000000,0.000072,0.000237,-0.000457,0.463009,-0.060323,-0.191391,-0.863338,16.628998,-16.343217,-125.995037
46523,2.826250,2.657020,9.185386,-0.081668,0.028856,0.157832,-0.013838,0.036886,-0.099943,0.028293,0.026562,0.091847,1.000000,-0.000069,0.000184,-0.000500,0.462645,-0.060147,-0.191237,-0.863580,16.628187,-16.309974,-126.040824
46524,2.914418,2.605854,9.152122,-0.175772,-0.031624,0.137877,0.002225,0.052272,-0.110714,0.029183,0.026041,0.091514,1.000000,0.000011,0.000261,-0.000554,0.462251,-0.059852,-0.191130,-0.863835,16.638880,-16.266469,-126.090653
46525,2.751061,2.710898,9.257017,-0.010170,0.077609,0.217444,-0.010140,0.050617,-0.121181,0.027550,0.027097,0.092562,1.000000,-0.000051,0.000253,-0.000606,0.461809,-0.059588,-0.190967,-0.864126,16.642846,-16.222209,-126.146209
46526,2.810463,2.618419,9.176523,-0.118985,0.041381,0.134549,-0.010829,0.045016,-0.127445,0.028142,0.026171,0.091757,1.000000,-0.000054,0.000225,-0.000637,0.461331,-0.059339,-0.190825,-0.864429,16.648992,-16.179932,-126.206810
46527,2.746717,2.662046,9.100401,-0.047445,0.034394,0.058726,0.010433,0.056859,-0.126586,0.027510,0.026598,0.090998,1.000000,0.000052,0.000284,-0.000633,0.460878,-0.058995,-0.190737,-0.864714,16.665206,-16.131344,-126.264348
46528,2.493899,2.775744,9.225284,0.172294,0.217139,0.134840,0.041404,0.051802,-0.104450,0.024977,0.027725,0.092252,1.000000,0.000207,0.000259,-0.000522,0.460521,-0.058617,-0.190798,-0.864916,16.697204,-16.089088,-126.310596
46529,2.595993,3.024562,9.149600,0.316665,-0.017748,0.162369,0.042280,0.021775,-0.065670,0.025980,0.030218,0.091500,1.000000,0.000211,0.000109,-0.000328,0.460307,-0.058410,-0.190911,-0.865019,16.723605,-16.069714,-126.339294
46530,2.825306,3.132800,8.996704,0.281262,-0.309817,0.115172,0.017304,0.038298,-0.046511,0.028278,0.031314,0.089964,1.000000,0.000087,0.000191,-0.000233,0.460181,-0.058202,-0.190882,-0.865107,16.733231,-16.044387,-126.354729
46531,2.837519,2.884682,8.980521,0.070076,-0.205170,0.034934,-0.024965,0.057422,-0.034151,0.028406,0.028853,0.089793,1.000000,-0.000125,0.000287,-0.000171,0.460117,-0.058024,-0.190614,-0.865212,16.714484,-16.010636,-126.359332
46532,2.807258,2.790768,9.028241,0.004461,-0.122931,0.044447,-0.003656,0.083098,-0.025863,0.028114,0.027906,0.090270,1.000000,-0.000018,0.000415,-0.000129,0.460117,-0.057690,-0.190385,-0.865285,16.706722,-15.964130,-126.355305
46533,2.691036,2.775836,9.207087,0.041088,0.035384,0.173024,-0.000234,0.091616,-0.026323,0.026956,0.027755,0.092058,1.000000,-0.000001,0.000458,-0.000132,0.460126,-0.057316,-0.190143,-0.865358,16.699335,-15.912923,-126.349608
46534,2.465122,2.813418,9.329018,0.186383,0.231975,0.233913,0.032949,0.072360,-0.008978,0.024686,0.028118,0.093286,1.000000,0.000165,0.000362,-0.000045,0.460199,-0.056960,-0.190092,-0.865354,16.710420,-15.875091,-126.337791
46535,2.752612,2.990252,9.232796,0.170824,-0.119473,0.272924,0.027727,0.035092,0.012623,0.027540,0.029891,0.092327,1.000000,0.000139,0.000175,0.000063,0.460331,-0.056802,-0.190089,-0.865295,16.715638,-15.861290,-126.319557
46536,2.921985,2.917036,9.048654,0.026065,-0.286360,0.129272,0.023618,0.058645,0.021618,0.029243,0.029163,0.090481,1.000000,0.000118,0.000293,0.000108,0.460520,-0.056556,-0.190021,-0.865225,16.717259,-15.836028,-126.292632
46537,2.787544,2.938697,9.182211,0.106750,-0.146055,0.221584,0.037507,0.080916,0.039643,0.027907,0.029375,0.091816,1.000000,0.000188,0.000405,0.000198,0.460816,-0.056204,-0.189948,-0.865107,16.721798,-15.801553,-126.251156
46538,2.543622,2.982759,9.358954,0.264596,0.084136,0.330281,0.020957,0.069320,0.047455,0.025462,0.029824,0.093584,1.000000,0.000105,0.000347,0.000237,0.461126,-0.055942,-0.189837,-0.864983,16.717417,-15.774694,-126.207676
46539,2.547263,2.699204,9.279003,0.035874,0.190127,0.179145,0.007254,0.038009,0.053112,0.025483,0.026995,0.092786,1.000000,0.000036,0.000190,0.000266,0.461430,-0.055857,-0.189728,-0.864850,16.704604,-15.765962,-126.165895
46540,2.661123,2.640008,9.189778,-0.070783,0.096010,0.111475,0.033295,0.033344,0.043193,0.026621,0.026391,0.091898,1.000000,0.000166,0.000167,0.000216,0.461691,-0.055719,-0.189754,-0.864714,16.709648,-15.758134,-126.131014
46541,2.706748,2.686696,9.148234,-0.056732,0.020768,0.098486,0.036300,0.030228,0.032197,0.027077,0.026855,0.091483,1.000000,0.000182,0.000151,0.000161,0.461905,-0.055581,-0.189794,-0.864600,16.717077,-15.750208,-126.102491
